time,acc_x,acc_y,acc_z,gyro_x,gyro_y,gyro_z
0.0,0.016296,-0.072449,0.485901,0.034058,-0.027771,-0.07666
0.02,0.015015,-0.073914,0.502991,0.070801,-0.216248,-0.253052
0.04,0.015198,-0.073792,0.50293,0.043823,-0.124268,-0.045593
0.06,0.015747,-0.074097,0.502747,-0.012695,0.033936,0.000549
0.08,0.015564,-0.073792,0.503479,-0.012695,0.034119,0.00293
0.1,0.014771,-0.073425,0.503296,-0.012329,0.031738,0.004395
0.12,0.015259,-0.073975,0.502563,-0.009216,0.022583,0.003845
0.14,0.015442,-0.073975,0.503357,0.000366,-0.002563,-0.000183
0.16,0.015015,-0.073608,0.503296,0.001099,-0.004578,-0.000488
0.18,0.014709,-0.073608,0.503113,0.001099,-0.0047,-0.000488
0.2,0.014709,-0.074097,0.503418,0.00116,-0.004639,-0.000549
0.22,0.015259,-0.074036,0.502869,0.00116,-0.004517,-0.00061
0.24,0.015686,-0.073914,0.503601,0.00116,-0.004517,-0.000488
0.26,0.014893,-0.074036,0.503601,0.00116,-0.004578,-0.000488
0.28,0.015503,-0.07312,0.503784,0.001221,-0.004517,-0.000549
0.3,0.015259,-0.073975,0.503601,0.001099,-0.004578,-0.000549
0.32,0.015137,-0.073425,0.503357,0.00116,-0.004578,-0.000671
0.34,0.015259,-0.073608,0.503784,0.001099,-0.0047,-0.00061
0.36,0.015015,-0.073486,0.503967,0.001099,-0.0047,-0.000549
0.38,0.015259,-0.073303,0.503845,0.001099,-0.004578,-0.00061
0.4,0.015381,-0.073792,0.503601,0.001099,-0.004639,-0.000549
0.42,0.015381,-0.07373,0.50354,0.001221,-0.004639,-0.000549
0.44,0.01532,-0.074097,0.503357,0.00116,-0.004578,-0.00061
0.46,0.014771,-0.073853,0.503113,0.001099,-0.004639,-0.000488
0.48,0.01532,-0.074158,0.50354,0.001099,-0.004578,-0.000488
0.5,0.015625,-0.074158,0.503906,0.001099,-0.004517,-0.00061
0.52,0.015015,-0.07373,0.503784,0.001038,-0.004517,-0.000549
0.54,0.01532,-0.073486,0.503662,0.00116,-0.004578,-0.000549
0.56,0.015076,-0.072998,0.503845,0.00116,-0.004578,-0.000549
0.58,0.015137,-0.073608,0.503723,0.00116,-0.004578,-0.000488
0.6,0.015137,-0.073792,0.50354,0.001099,-0.004639,-0.000488
0.62,0.014893,-0.074158,0.503479,0.00116,-0.004639,-0.000488
0.64,0.015198,-0.073425,0.504028,0.001099,-0.004639,-0.000549
0.66,0.015015,-0.073975,0.503723,0.001099,-0.004517,-0.000549
0.68,0.015259,-0.074097,0.503357,0.001099,-0.004639,-0.000427
0.7,0.01532,-0.074158,0.504272,0.001099,-0.004639,-0.000549
0.72,0.015015,-0.073853,0.503845,0.001221,-0.004578,-0.000549
0.74,0.014709,-0.073669,0.503845,0.001038,-0.004578,-0.000549
0.76,0.014526,-0.073792,0.504028,0.001099,-0.0047,-0.00061
0.78,0.015259,-0.073547,0.503906,0.00116,-0.004639,-0.000671
0.8,0.015381,-0.073853,0.503479,0.001099,-0.004639,-0.00061
0.82,0.015137,-0.073975,0.503845,0.00116,-0.004639,-0.00061
0.84,0.01532,-0.074219,0.503784,0.001099,-0.004639,-0.000549
0.86,0.015259,-0.073914,0.503845,0.001099,-0.004517,-0.000549
0.88,0.015625,-0.073975,0.504761,0.001099,-0.004517,-0.000488
0.9,0.015076,-0.074158,0.503662,0.001099,-0.004578,-0.000488
0.92,0.015137,-0.073486,0.503845,0.001099,-0.004639,-0.000427
0.94,0.014893,-0.073792,0.504028,0.00116,-0.004517,-0.000488
0.96,0.01532,-0.07373,0.503662,0.001038,-0.004517,-0.000549
0.98,0.015137,-0.073669,0.503906,0.001099,-0.004578,-0.00061
1.0,0.01532,-0.074036,0.504028,0.001099,-0.004517,-0.000488
1.02,0.015503,-0.073914,0.503845,0.001038,-0.004639,-0.000488
1.04,0.015442,-0.073853,0.503906,0.001099,-0.004761,-0.000732
1.06,0.014771,-0.07373,0.503601,0.00116,-0.004578,-0.000488
1.08,0.015381,-0.073608,0.503906,0.00116,-0.004639,-0.000488
1.1,0.014832,-0.07373,0.50415,0.00116,-0.004578,-0.000549
1.12,0.01532,-0.073303,0.503906,0.001099,-0.004578,-0.000549
1.14,0.015076,-0.073853,0.504089,0.001038,-0.004639,-0.000488
1.16,0.015259,-0.073303,0.504028,0.001099,-0.004517,-0.000488
1.18,0.015076,-0.073975,0.503967,0.001099,-0.004578,-0.00061
1.2,0.01532,-0.074036,0.504272,0.001099,-0.0047,-0.000549
1.22,0.015015,-0.073914,0.50415,0.001221,-0.004517,-0.000549
1.24,0.015503,-0.073792,0.503845,0.00116,-0.004517,-0.00061
1.26,0.015015,-0.073364,0.504333,0.00116,-0.004578,-0.000549
1.28,0.015625,-0.073975,0.504639,0.00116,-0.004578,-0.000549
1.3,0.015137,-0.073975,0.503967,0.001099,-0.004639,-0.000671
1.32,0.01532,-0.074158,0.504089,0.00116,-0.004639,-0.000549
1.34,0.015381,-0.073914,0.503784,0.00116,-0.004517,-0.00061
1.36,0.01532,-0.073669,0.503967,0.001099,-0.004578,-0.000549
1.38,0.015503,-0.07373,0.503967,0.00116,-0.004578,-0.000549
1.4,0.015259,-0.073608,0.50354,0.00116,-0.004578,-0.000549
1.42,0.015381,-0.074097,0.504089,0.001099,-0.004639,-0.000549
1.44,0.015137,-0.073669,0.504272,0.001099,-0.004578,-0.00061
1.46,0.015381,-0.073608,0.503967,0.001099,-0.004578,-0.000549
1.48,0.014893,-0.073669,0.503662,0.001099,-0.004639,-0.000488
1.5,0.014648,-0.074219,0.504639,0.00116,-0.004517,-0.000549
1.52,0.015198,-0.073914,0.503906,0.001099,-0.004578,-0.000427
1.54,0.014709,-0.073853,0.504211,0.001099,-0.004578,-0.000549
1.56,0.015442,-0.07373,0.503967,0.001099,-0.004639,-0.00061
1.58,0.015076,-0.07373,0.504395,0.001099,-0.0047,-0.000549
1.6,0.014771,-0.073669,0.503845,0.00116,-0.004578,-0.000549
1.62,0.014832,-0.07428,0.504333,0.00116,-0.004578,-0.000671
1.64,0.014954,-0.073975,0.504028,0.001038,-0.004578,-0.000549
1.66,0.01532,-0.073975,0.504211,0.001099,-0.004639,-0.000549
1.68,0.015259,-0.07428,0.50415,0.001099,-0.004639,-0.000549
1.7,0.015015,-0.073914,0.504089,0.001099,-0.0047,-0.000488
1.72,0.015564,-0.073853,0.504578,0.00116,-0.004578,-0.000488
1.74,0.015442,-0.073486,0.504517,0.00116,-0.004578,-0.000549
1.76,0.015503,-0.073853,0.504456,0.001099,-0.0047,-0.000488
1.78,0.015747,-0.073181,0.504395,0.00116,-0.004517,-0.000488
1.8,0.015991,-0.074036,0.503601,0.001099,-0.004578,-0.00061
1.82,0.015442,-0.073914,0.504517,0.001099,-0.004578,-0.000488
1.84,0.015259,-0.073853,0.504028,0.00116,-0.004517,-0.00061
1.86,0.015137,-0.073608,0.50415,0.00116,-0.004578,-0.000427
1.88,0.014893,-0.073669,0.504456,0.001038,-0.004639,-0.000549
1.9,0.015564,-0.073669,0.503601,0.001099,-0.004578,-0.000671
1.92,0.014771,-0.073486,0.503967,0.001038,-0.004639,-0.000671
1.94,0.014526,-0.073975,0.5047,0.001099,-0.004639,-0.000549
1.96,0.014648,-0.073303,0.504761,0.001099,-0.004578,-0.000488
1.98,0.015137,-0.073608,0.50415,0.001099,-0.004578,-0.000488
2.0,0.01532,-0.07373,0.504211,0.00116,-0.004578,-0.000549
2.02,0.015625,-0.073425,0.503906,0.001038,-0.004456,-0.00061
2.04,0.014709,-0.073364,0.504028,0.001099,-0.004639,-0.00061
2.06,0.015015,-0.073303,0.504578,0.00116,-0.0047,-0.00061
2.08,0.016052,-0.073792,0.504333,0.001038,-0.004578,-0.00061
2.1,0.01532,-0.072998,0.504517,0.00116,-0.004639,-0.000549
2.12,0.015381,-0.073853,0.504517,0.00116,-0.004578,-0.000549
2.14,0.015259,-0.074097,0.503967,0.001038,-0.004578,-0.000549
2.16,0.014771,-0.073608,0.504395,0.001099,-0.004639,-0.00061
2.18,0.015686,-0.074097,0.503845,0.00116,-0.004578,-0.000549
2.2,0.015442,-0.074219,0.504333,0.001038,-0.004578,-0.000549
2.22,0.014709,-0.073975,0.504395,0.001099,-0.004578,-0.000549
2.24,0.014893,-0.073914,0.504395,0.001099,-0.004639,-0.000549
2.26,0.015198,-0.073364,0.504272,0.001099,-0.004639,-0.000488
2.28,0.014771,-0.073792,0.504211,0.001038,-0.004578,-0.000488
2.3,0.015076,-0.073547,0.504456,0.001099,-0.004517,-0.000549
2.32,0.014099,-0.073425,0.504089,0.001099,-0.004639,-0.00061
2.34,0.01416,-0.073547,0.504517,0.00116,-0.004639,-0.000549
2.36,0.014709,-0.073181,0.504456,0.001221,-0.004639,-0.000488
2.38,0.01416,-0.072998,0.504639,0.00116,-0.004639,-0.000488
2.4,0.014893,-0.073242,0.504761,0.00116,-0.004517,-0.000488
2.42,0.014832,-0.073853,0.50354,0.001099,-0.004578,-0.00061
2.44,0.01532,-0.073425,0.503906,0.001099,-0.0047,-0.000549
2.46,0.015259,-0.074402,0.504578,0.001099,-0.004517,-0.000549
2.48,0.015991,-0.074585,0.504517,0.001221,-0.004578,-0.00061
2.5,0.016296,-0.074524,0.504456,0.001038,-0.004639,-0.000549
2.52,0.016968,-0.07489,0.503906,0.001099,-0.004578,-0.000549
2.54,0.016785,-0.074585,0.504089,0.00116,-0.004639,-0.00061
2.56,0.016663,-0.073853,0.504883,0.00116,-0.004639,-0.00061
2.58,0.016113,-0.074097,0.504272,0.001221,-0.004578,-0.000549
2.6,0.016418,-0.073975,0.503784,0.001099,-0.004578,-0.000488
2.62,0.015442,-0.073853,0.505188,0.001282,-0.004578,-0.000671
2.64,0.015808,-0.073669,0.504089,0.001038,-0.004639,-0.000549
2.66,0.015381,-0.073059,0.504456,0.001099,-0.0047,-0.000427
2.68,0.014893,-0.073547,0.50354,0.001221,-0.004456,-0.000549
2.7,0.015381,-0.07373,0.504333,0.001282,-0.004517,-0.000549
2.72,0.014648,-0.073181,0.504211,0.001099,-0.004639,-0.000488
2.74,0.014282,-0.072937,0.5047,0.00116,-0.004517,-0.000488
2.76,0.014099,-0.07373,0.504272,0.00116,-0.004517,-0.000488
2.78,0.014099,-0.073608,0.503845,0.001038,-0.004578,-0.000488
2.8,0.014709,-0.074219,0.504272,0.001099,-0.004639,-0.000671
2.82,0.014526,-0.07428,0.50415,0.001038,-0.0047,-0.00061
2.84,0.014709,-0.074341,0.504517,0.00116,-0.004578,-0.000427
2.86,0.014465,-0.074097,0.504456,0.001282,-0.004456,-0.00061
2.88,0.014954,-0.07428,0.504883,0.001038,-0.0047,-0.000549
2.9,0.015625,-0.074036,0.50531,0.00116,-0.004578,-0.000732
2.92,0.016663,-0.073792,0.503845,0.00116,-0.004517,-0.000671
2.94,0.016357,-0.073975,0.504639,0.00116,-0.004639,-0.000488
2.96,0.016846,-0.073669,0.504761,0.001282,-0.004456,-0.00061
2.98,0.016357,-0.073059,0.504517,0.001099,-0.004517,-0.000671
3.0,0.015259,-0.073364,0.504578,0.00116,-0.004517,-0.000488
3.02,0.014648,-0.073425,0.505554,0.001282,-0.004456,-0.000488
3.04,0.014282,-0.073486,0.504944,0.001221,-0.004761,-0.00061
3.06,0.013977,-0.073486,0.505798,0.001221,-0.004761,-0.000549
3.08,0.013367,-0.073425,0.504028,0.00116,-0.004639,-0.000488
3.1,0.013,-0.073181,0.503357,0.00116,-0.0047,-0.000427
3.12,0.013855,-0.073425,0.504578,0.001343,-0.0047,-0.000549
3.14,0.013489,-0.073425,0.50531,0.001343,-0.004639,-0.000671
3.16,0.014099,-0.073059,0.505371,0.001282,-0.004761,-0.000549
3.18,0.015015,-0.073608,0.505005,0.001221,-0.004761,-0.000549
3.2,0.016113,-0.07428,0.503418,0.001099,-0.004822,-0.00061
3.22,0.016479,-0.074646,0.504761,0.001343,-0.004761,-0.000549
3.24,0.016846,-0.074768,0.504883,0.001465,-0.004578,-0.000732
3.26,0.01709,-0.074097,0.505188,0.001282,-0.0047,-0.00061
3.28,0.016846,-0.07428,0.503296,0.00116,-0.004761,-0.000549
3.3,0.01709,-0.07428,0.504395,0.001404,-0.004639,-0.000549
3.32,0.016663,-0.074646,0.504028,0.001221,-0.004578,-0.000671
3.34,0.017212,-0.074341,0.503418,0.001221,-0.004822,-0.00061
3.36,0.016663,-0.073975,0.503845,0.001282,-0.004639,-0.000488
3.38,0.015991,-0.073853,0.5047,0.001404,-0.004517,-0.000549
3.4,0.014954,-0.073364,0.504272,0.00116,-0.004578,-0.000549
3.42,0.014526,-0.072815,0.50354,0.001038,-0.004578,-0.000427
3.44,0.013611,-0.072876,0.503662,0.001221,-0.004639,-0.000549
3.46,0.013672,-0.07312,0.504944,0.001404,-0.004517,-0.00061
3.48,0.013672,-0.073242,0.506042,0.001282,-0.004639,-0.00061
3.5,0.013367,-0.07373,0.502441,0.000671,-0.0047,-0.000427
3.52,0.013733,-0.072144,0.505371,0.001343,-0.004578,-0.000427
3.54,0.014099,-0.073059,0.503418,0.001221,-0.004456,-0.000793
3.56,0.014893,-0.073242,0.505554,0.001099,-0.004822,-0.00061
3.58,0.015076,-0.073669,0.503235,0.000977,-0.004578,-0.00061
3.6,0.015869,-0.072266,0.504822,0.001343,-0.004578,-0.000793
3.62,0.015808,-0.071899,0.504883,0.001099,-0.004578,-0.000793
3.64,0.015625,-0.072388,0.504761,0.001038,-0.004578,-0.000549
3.66,0.01593,-0.073059,0.503967,0.000854,-0.004578,-0.000549
3.68,0.016663,-0.073669,0.504822,0.00116,-0.0047,-0.000549
3.7,0.015991,-0.074524,0.504272,0.001038,-0.004517,-0.000488
3.72,0.015686,-0.074951,0.504028,0.000977,-0.0047,-0.000244
3.74,0.015747,-0.075378,0.503906,0.001099,-0.004578,-0.000427
3.76,0.015747,-0.07489,0.504517,0.00116,-0.004517,-0.000671
3.78,0.015259,-0.07489,0.504272,0.001099,-0.004578,-0.000549
3.8,0.014221,-0.074402,0.503906,0.001038,-0.004578,-0.000549
3.82,0.014587,-0.073547,0.504272,0.00116,-0.004517,-0.000488
3.84,0.014282,-0.07312,0.504089,0.001038,-0.004578,-0.00061
3.86,0.013794,-0.072083,0.504883,0.00116,-0.004578,-0.000549
3.88,0.013916,-0.072388,0.502686,0.000916,-0.004456,-0.000488
3.9,0.012878,-0.072327,0.504761,0.000977,-0.004517,-0.000427
3.92,0.013916,-0.072632,0.505066,0.001221,-0.004456,-0.00061
3.94,0.014893,-0.073364,0.503723,0.000916,-0.004578,-0.000549
3.96,0.015991,-0.073486,0.505554,0.000977,-0.0047,-0.000427
3.98,0.016052,-0.074768,0.505005,0.000977,-0.004456,-0.000671
4.0,0.017761,-0.074707,0.504883,0.000916,-0.004517,-0.000427
4.02,0.018066,-0.0755,0.503601,0.000916,-0.004639,-0.000671
4.04,0.018616,-0.0755,0.50354,0.001099,-0.004639,-0.000854
4.06,0.0177,-0.075317,0.503967,0.001038,-0.004517,-0.000732
4.08,0.017273,-0.075684,0.505127,0.001099,-0.004517,-0.000732
4.1,0.016357,-0.074707,0.504211,0.001099,-0.004456,-0.000732
4.12,0.015686,-0.074097,0.504883,0.001038,-0.004578,-0.00061
4.14,0.014893,-0.073425,0.505249,0.00116,-0.004517,-0.000549
4.16,0.014282,-0.073425,0.505005,0.001099,-0.004456,-0.000549
4.18,0.013733,-0.072754,0.504883,0.001099,-0.004578,-0.000427
4.2,0.013123,-0.072388,0.504578,0.001099,-0.004456,-0.000427
4.22,0.012939,-0.07196,0.504822,0.001038,-0.004517,-0.000549
4.24,0.012695,-0.071655,0.50531,0.001038,-0.004517,-0.000549
4.26,0.012695,-0.071533,0.505249,0.001221,-0.004517,-0.000549
4.28,0.013367,-0.071777,0.504639,0.001038,-0.004578,-0.00061
4.3,0.013855,-0.071899,0.505188,0.001038,-0.004578,-0.000549
4.32,0.013428,-0.072754,0.504822,0.001038,-0.004639,-0.000732
4.34,0.014465,-0.072632,0.505432,0.000977,-0.004639,-0.000671
4.36,0.014709,-0.073669,0.504883,0.001099,-0.004517,-0.000671
4.38,0.015503,-0.073669,0.504517,0.001038,-0.004456,-0.000732
4.4,0.016174,-0.074768,0.504517,0.000977,-0.004578,-0.00061
4.42,0.017029,-0.075256,0.504211,0.001038,-0.004639,-0.00061
4.44,0.017822,-0.075745,0.504333,0.001038,-0.004517,-0.000671
4.46,0.017395,-0.0755,0.504517,0.000977,-0.004578,-0.000549
4.48,0.017029,-0.075378,0.5047,0.001038,-0.004517,-0.000488
4.5,0.016907,-0.075195,0.504517,0.001038,-0.004517,-0.000549
4.52,0.01593,-0.074219,0.504456,0.00116,-0.004578,-0.000549
4.54,0.015869,-0.073486,0.504578,0.00116,-0.004395,-0.000488
4.56,0.014648,-0.073364,0.505493,0.00116,-0.004456,-0.000488
4.58,0.013794,-0.072388,0.505127,0.001099,-0.004517,-0.000427
4.6,0.014404,-0.072083,0.504517,0.001038,-0.004578,-0.000488
4.62,0.013184,-0.071411,0.505005,0.001099,-0.004517,-0.000549
4.64,0.013367,-0.072571,0.505249,0.001099,-0.004578,-0.000549
4.66,0.013672,-0.072632,0.504639,0.001099,-0.004639,-0.000549
4.68,0.014526,-0.073364,0.504456,0.001038,-0.004639,-0.00061
4.7,0.014771,-0.074463,0.504822,0.001038,-0.004578,-0.000549
4.72,0.015137,-0.074219,0.504333,0.001099,-0.004578,-0.00061
4.74,0.015686,-0.074097,0.50415,0.00116,-0.004517,-0.000671
4.76,0.015808,-0.073853,0.504517,0.001099,-0.004578,-0.00061
4.78,0.01593,-0.074341,0.504639,0.001038,-0.004639,-0.00061
4.8,0.016235,-0.074524,0.505005,0.001038,-0.004578,-0.00061
4.82,0.015869,-0.074463,0.505188,0.001099,-0.004517,-0.00061
4.84,0.016235,-0.074829,0.503967,0.000977,-0.004639,-0.000488
4.86,0.016418,-0.074219,0.504089,0.001038,-0.004761,-0.000488
4.88,0.016235,-0.074036,0.504089,0.001038,-0.004517,-0.000549
4.9,0.015869,-0.073975,0.504089,0.000916,-0.004578,-0.000549
4.92,0.015442,-0.074524,0.505493,0.001099,-0.004639,-0.000427
4.94,0.01532,-0.073547,0.507568,0.001526,-0.004456,-0.00061
4.96,0.014587,-0.073486,0.505005,0.000854,-0.004456,-0.000549
4.98,0.013245,-0.072266,0.503357,0.000732,-0.0047,-0.000305
5.0,0.013245,-0.072144,0.504333,0.001282,-0.004456,-0.00061
5.02,0.014282,-0.072815,0.505127,0.001343,-0.004395,-0.00061
5.04,0.014343,-0.072815,0.504517,0.000854,-0.004761,-0.00061
5.06,0.01416,-0.073059,0.504211,0.001099,-0.0047,-0.00061
5.08,0.015076,-0.073669,0.505249,0.00116,-0.004578,-0.000671
5.1,0.015259,-0.073792,0.504089,0.000916,-0.0047,-0.000549
5.12,0.015686,-0.07428,0.504333,0.000977,-0.004761,-0.000488
5.14,0.016052,-0.074463,0.50531,0.001221,-0.004639,-0.000671
5.16,0.016846,-0.074829,0.505066,0.001099,-0.004639,-0.000671
5.18,0.016479,-0.074219,0.504028,0.001038,-0.004517,-0.000549
5.2,0.015259,-0.073792,0.503601,0.00116,-0.004578,-0.000549
5.22,0.015564,-0.073792,0.50415,0.00116,-0.004639,-0.000671
5.24,0.015869,-0.073669,0.504517,0.001099,-0.004639,-0.00061
5.26,0.015381,-0.072876,0.504883,0.001099,-0.004639,-0.000488
5.28,0.015015,-0.072998,0.504578,0.001038,-0.004578,-0.000549
5.3,0.015015,-0.07312,0.503906,0.001038,-0.004578,-0.000549
5.32,0.014954,-0.073608,0.502747,0.002319,-0.004517,-0.00061
5.34,0.016296,-0.073425,0.509338,0.003357,-0.003357,-0.000793
5.36,0.015259,-0.074524,0.50293,-0.00116,-0.004272,0.000977
5.38,0.013,-0.073608,0.501892,-0.001526,-0.005859,0.001831
5.4,0.013428,-0.072571,0.504944,0.00293,-0.004211,-0.000427
5.42,0.01532,-0.074646,0.504639,0.002258,-0.004639,-0.001465
5.44,0.013794,-0.073242,0.503601,0.001038,-0.005859,-0.000427
5.46,0.014099,-0.072632,0.504822,0.002869,-0.004517,-0.001465
5.48,0.014587,-0.072754,0.505066,0.001831,-0.005127,-0.002136
5.5,0.014648,-0.072571,0.504272,0.000549,-0.006409,-0.002136
5.52,0.016174,-0.071716,0.51001,0.000916,-0.006042,-0.002869
5.54,0.014832,-0.073853,0.501892,-0.004517,-0.007019,-0.003113
5.56,0.019653,-0.075867,0.508118,-0.004211,-0.00824,-0.003479
5.58,0.015442,-0.073914,0.505554,-0.004639,-0.005005,-0.001221
5.6,0.017029,-0.074951,0.506897,-0.009521,-0.008545,-0.000183
5.62,0.014832,-0.057556,0.506165,-0.011658,-0.008179,0.000671
5.64,-0.02356,0.010986,0.504395,-0.010254,-0.009216,0.008179
5.66,-0.021912,0.002686,0.525818,0.001831,-0.010071,0.020752
5.68,-0.03363,-0.110474,0.494568,0.003967,-0.009521,0.031555
5.7,0.096008,-0.215149,0.516785,-0.000427,-0.006348,0.029541
5.72,0.044067,-0.072205,0.493347,-0.032043,-0.000671,-0.01001
5.74,0.019653,-0.084045,0.511047,-0.031616,-0.009094,-0.026489
5.76,-0.002808,-0.096375,0.505371,-0.043701,-0.026306,-0.008423
5.78,-0.001526,-0.100098,0.500854,-0.041382,-0.041321,0.015686
5.8,0.014954,-0.091614,0.510498,-0.036682,-0.052673,0.029663
5.82,0.005432,-0.097595,0.539917,-0.032043,-0.057617,0.031982
5.84,0.012695,-0.117493,0.576538,0.002075,-0.056213,0.029785
5.86,0.048584,-0.131775,0.591797,0.036682,-0.04657,0.022705
5.88,0.07196,-0.115601,0.605408,0.046204,-0.042175,0.005798
5.9,0.083191,-0.109131,0.595703,0.039856,-0.055359,-0.011108
5.92,0.076172,-0.10083,0.587341,0.032776,-0.084412,-0.019653
5.94,0.06488,-0.085632,0.584717,0.025269,-0.121399,-0.024353
5.96,0.056885,-0.06189,0.57666,0.014099,-0.154663,-0.026917
5.98,0.051025,-0.058899,0.574646,0.006531,-0.174194,-0.030029
6.0,0.047607,-0.072388,0.58844,0.016663,-0.179382,-0.03717
6.02,0.05896,-0.086304,0.594055,0.036011,-0.177307,-0.046631
6.04,0.065918,-0.102661,0.607788,0.045166,-0.175842,-0.05188
6.06,0.074524,-0.121582,0.609558,0.045532,-0.181335,-0.047974
6.08,0.075684,-0.111328,0.61377,0.042603,-0.194641,-0.042175
6.1,0.063477,-0.085754,0.603577,0.041565,-0.210449,-0.041382
6.12,0.050781,-0.080994,0.584351,0.032471,-0.221619,-0.041565
6.14,0.078308,-0.097046,0.579041,0.023315,-0.224304,-0.036865
6.16,0.092712,-0.096497,0.577576,0.024109,-0.22168,-0.029541
6.18,0.068604,-0.076355,0.562439,0.030945,-0.224121,-0.020813
6.2,0.075745,-0.057861,0.544556,0.02478,-0.234558,-0.016418
6.22,0.10321,-0.053223,0.541504,0.000793,-0.246826,-0.020691
6.24,0.11908,-0.061462,0.532043,-0.019531,-0.254333,-0.029419
6.26,0.121643,-0.067139,0.521362,-0.035583,-0.256104,-0.038513
6.28,0.158203,-0.050232,0.527283,-0.062256,-0.257568,-0.045349
6.3,0.195923,-0.048828,0.493042,-0.076965,-0.255615,-0.047791
6.32,0.194336,-0.036804,0.493103,-0.081055,-0.25293,-0.051331
6.34,0.162476,-0.061035,0.477295,-0.086182,-0.252258,-0.054077
6.36,0.18103,-0.108704,0.494568,-0.080444,-0.259644,-0.050232
6.38,0.202393,-0.112732,0.478271,-0.065674,-0.260254,-0.046082
6.4,0.228577,-0.070862,0.406189,-0.052979,-0.259949,-0.035156
6.42,0.254517,-0.019592,0.348083,-0.055725,-0.274292,-0.025085
6.44,0.247925,-0.005859,0.362732,-0.066162,-0.31073,-0.027649
6.46,0.293701,-0.030518,0.368042,-0.05249,-0.339905,-0.048767
6.48,0.360474,-0.037842,0.386841,-0.029785,-0.364319,-0.074829
6.5,0.383118,-0.020813,0.37738,-0.017212,-0.383972,-0.083618
6.52,0.386841,-0.005188,0.36853,0.009888,-0.385193,-0.088501
6.54,0.380615,0.005432,0.365662,0.042236,-0.370544,-0.10553
6.56,0.345215,-0.022278,0.323914,0.067749,-0.349548,-0.118835
6.58,0.328247,-0.044067,0.300781,0.069763,-0.324707,-0.108459
6.6,0.318481,-0.048218,0.307373,0.062195,-0.288391,-0.07373
6.62,0.344849,-0.043701,0.285889,0.084106,-0.236694,-0.029297
6.64,0.392334,-0.028198,0.243164,0.125854,-0.176331,0.009094
6.66,0.414368,-0.00885,0.216553,0.145081,-0.12384,0.036194
6.68,0.428223,0.00415,0.223389,0.133057,-0.105042,0.048767
6.7,0.457581,0.013794,0.226501,0.130249,-0.123291,0.045898
6.72,0.465515,0.039978,0.245117,0.144165,-0.159851,0.030396
6.74,0.453491,0.051575,0.244446,0.149231,-0.196533,-0.000244
6.76,0.46814,0.031616,0.234802,0.153687,-0.232971,-0.035583
6.78,0.471863,0.003296,0.207336,0.144714,-0.260315,-0.05542
6.8,0.45874,0.004517,0.207397,0.135376,-0.263,-0.046021
6.82,0.46521,-0.007507,0.176575,0.140442,-0.243408,-0.020935
6.84,0.446533,-0.012512,0.186523,0.149536,-0.230103,-0.001831
6.86,0.434204,-0.013977,0.193481,0.153564,-0.224792,-0.001099
6.88,0.456543,-0.013977,0.203796,0.157043,-0.232971,0.009583
6.9,0.482849,-0.021057,0.202332,0.154846,-0.224731,0.029419
6.92,0.471924,-0.017273,0.192505,0.139465,-0.209656,0.041565
6.94,0.463623,0.006287,0.199219,0.149536,-0.210205,0.043701
6.96,0.482483,0.000488,0.189575,0.161377,-0.221558,0.036865
6.98,0.540588,0.020447,0.186584,0.129028,-0.233459,0.033264
7.0,0.503723,0.028931,0.142456,0.107178,-0.22345,0.044067
7.02,0.48761,0.011597,0.128296,0.107361,-0.182556,0.058044
7.04,0.482178,-0.018738,0.103088,0.079712,-0.142822,0.08844
7.06,0.481262,-0.014587,0.074402,0.030273,-0.129333,0.137085
7.08,0.470154,-0.020569,0.043396,0.008301,-0.147156,0.167786
7.1,0.454285,-0.028503,0.0802,0.003906,-0.196167,0.178711
7.12,0.472839,-0.012939,0.101379,-0.025574,-0.236511,0.158203
7.14,0.433716,0.004272,0.174561,-0.049011,-0.241211,0.126892
7.16,0.420532,-0.050354,0.179382,-0.018127,-0.212952,0.119751
7.18,0.448914,-0.067505,0.15625,-0.01123,-0.179321,0.119324
7.2,0.463806,-0.058899,0.127258,-0.034729,-0.148499,0.121155
7.22,0.474792,-0.049866,0.086548,-0.070801,-0.12207,0.122131
7.24,0.489502,-0.045044,0.06189,-0.091431,-0.081177,0.11377
7.26,0.513062,-0.042786,0.031799,-0.100891,-0.014709,0.097778
7.28,0.503967,-0.047363,-0.001221,-0.146301,0.03302,0.07782
7.3,0.507812,-0.038086,-0.015686,-0.22406,0.03656,0.061707
7.32,0.527039,-0.044617,-0.02301,-0.321411,0.018555,0.038513
7.34,0.522949,-0.053101,-0.005798,-0.410889,-0.005371,0.019348
7.36,0.499878,-0.041748,0.075684,-0.489685,-0.019226,0.0047
7.38,0.493408,-0.047424,0.062134,-0.562256,-0.015991,-0.011108
7.4,0.501709,-0.0672,0.034302,-0.609009,-0.018616,-0.025879
7.42,0.434448,-0.067932,0.107422,-0.633484,-0.037476,-0.044495
7.44,0.36499,-0.144531,0.144958,-0.536499,-0.054138,-0.051453
7.46,0.395386,-0.203918,0.052307,-0.38446,-0.030029,-0.026672
7.48,0.40155,-0.201721,-0.053345,-0.306458,0.012207,0.024475
7.5,0.41095,-0.146912,-0.096863,-0.273865,0.031616,0.077087
7.52,0.408447,-0.109314,-0.060059,-0.227234,0.015564,0.099243
7.54,0.408386,-0.109253,-0.040283,-0.206299,-0.007629,0.086426
7.56,0.412842,-0.102417,-0.053467,-0.230286,-0.017273,0.064514
7.58,0.414612,-0.090027,-0.08075,-0.280884,-0.032104,0.043701
7.6,0.416077,-0.074219,-0.09375,-0.33374,-0.06134,0.021179
7.62,0.425476,-0.065247,-0.079407,-0.365784,-0.106323,0.002563
7.64,0.428711,-0.089966,-0.021851,-0.341797,-0.149048,-0.008789
7.66,0.420105,-0.145203,0.04071,-0.242371,-0.169861,-0.013367
7.68,0.410767,-0.159607,0.035522,-0.122131,-0.150085,-0.006775
7.7,0.404968,-0.143738,-0.007385,-0.029297,-0.106384,0.002991
7.72,0.405579,-0.119019,-0.061523,0.029724,-0.071106,0.005981
7.74,0.419189,-0.109924,-0.103821,0.056335,-0.066895,0.004272
7.76,0.4552,-0.105225,-0.114868,0.05835,-0.085388,0.008118
7.78,0.504883,-0.094666,-0.095215,0.04248,-0.10022,0.01886
7.8,0.539001,-0.084412,-0.069519,0.020996,-0.098145,0.030212
7.82,0.540039,-0.068481,-0.04657,0.002197,-0.084778,0.035828
7.84,0.527466,-0.060425,-0.056824,-0.028381,-0.07074,0.033081
7.86,0.507812,-0.07135,-0.064514,-0.064758,-0.066345,0.023132
7.88,0.442383,-0.095154,-0.047058,-0.084167,-0.072632,0.023621
7.9,0.45929,-0.119995,-0.044434,-0.072327,-0.081238,0.0448
7.92,0.532227,-0.115845,-0.06311,-0.0401,-0.079407,0.065735
7.94,0.565369,-0.103455,-0.074463,-0.012695,-0.070129,0.074829
7.96,0.556091,-0.096741,-0.079285,0.006348,-0.057312,0.068176
7.98,0.504272,-0.115784,-0.052734,0.012695,-0.042419,0.05188
8.0,0.434875,-0.146912,-0.058533,-0.00647,-0.030212,0.039062
8.02,0.41864,-0.172119,-0.078979,-0.017517,-0.013916,0.043335
8.04,0.391907,-0.172241,-0.100464,-0.016113,-0.001648,0.065979
8.06,0.378784,-0.158447,-0.118225,-0.026672,0.000244,0.086853
8.08,0.363342,-0.144409,-0.111938,-0.044189,-0.000488,0.096497
8.1,0.324402,-0.144226,-0.096069,-0.060791,-0.001343,0.09259
8.12,0.284607,-0.166016,-0.087952,-0.075378,0.001831,0.07959
8.14,0.248108,-0.222595,-0.069031,-0.069214,0.009521,0.061523
8.16,0.203369,-0.27594,-0.076965,-0.035645,0.017273,0.051208
8.18,0.165649,-0.292664,-0.092224,0.002808,0.031799,0.054016
8.2,0.142883,-0.281616,-0.1073,0.026123,0.043091,0.064209
8.22,0.14917,-0.262695,-0.110901,0.031921,0.038696,0.070435
8.24,0.17926,-0.236511,-0.1026,0.038269,0.024902,0.064087
8.26,0.21582,-0.200134,-0.065308,0.052612,0.00769,0.038086
8.28,0.266235,-0.185303,-0.026001,0.058716,-0.013062,-0.01062
8.3,0.333191,-0.204712,0.003113,0.065186,-0.025635,-0.060913
8.32,0.428406,-0.168762,0.000671,0.07312,-0.031982,-0.079407
8.34,0.590515,-0.10199,-0.006958,0.076416,-0.041382,-0.070801
8.36,0.769165,-0.070007,-0.044067,0.074219,-0.051147,-0.05188
8.38,0.886597,-0.048035,-0.079407,0.060059,-0.044312,-0.03125
8.4,0.977844,-0.03894,-0.125488,0.038513,-0.016907,-0.004822
8.42,1.037842,-0.018494,-0.147705,0.011047,0.012085,0.023254
8.44,0.989929,-0.001404,-0.125183,-0.008606,0.032654,0.051575
8.46,0.946472,-0.013672,-0.124817,-0.007568,0.040466,0.077637
8.48,0.922424,-0.029724,-0.15863,0.003784,0.029724,0.098083
8.5,0.865295,-0.052612,-0.158081,0.016663,0.004211,0.106018
8.52,0.78595,-0.089661,-0.121765,0.021423,-0.03064,0.097107
8.54,0.700867,-0.140381,-0.06897,0.032532,-0.057861,0.080505
8.56,0.620056,-0.19696,-0.002258,0.046387,-0.074341,0.068359
8.58,0.528564,-0.222961,0.025391,0.038025,-0.076355,0.064331
8.6,0.440491,-0.231384,0.009094,0.034363,-0.053833,0.066101
8.62,0.368958,-0.261169,0.031738,0.01239,-0.033447,0.077454
8.64,0.320435,-0.288025,-0.010193,-0.025696,-0.011414,0.090881
8.66,0.283997,-0.273804,-0.05304,-0.051025,0.005005,0.108582
8.68,0.248352,-0.249634,-0.081299,-0.057983,0.008301,0.124146
8.7,0.223083,-0.260376,-0.066345,-0.056641,0.004211,0.125549
8.72,0.19342,-0.263489,-0.025818,-0.040955,0.005493,0.122864
8.74,0.170532,-0.23584,-0.033569,-0.008789,0.023438,0.119202
8.76,0.159607,-0.219116,-0.071472,0.018066,0.047485,0.10553
8.78,0.149353,-0.251831,-0.069824,0.03009,0.060303,0.074219
8.8,0.121826,-0.252563,-0.050537,0.043579,0.062256,0.036194
8.82,0.134277,-0.218384,-0.048157,0.056519,0.070496,-0.001465
8.84,0.203125,-0.191589,-0.050415,0.052368,0.085876,-0.047363
8.86,0.270508,-0.189087,-0.087708,0.014587,0.091736,-0.108276
8.88,0.322388,-0.198975,-0.139648,-0.057617,0.08075,-0.171021
8.9,0.369629,-0.172119,-0.143005,-0.126221,0.055176,-0.210388
8.92,0.450684,-0.107361,-0.087036,-0.161499,0.02771,-0.232788
8.94,0.553528,-0.078979,-0.006775,-0.158569,0.013977,-0.259888
8.96,0.699829,-0.137512,0.045288,-0.109741,0.020813,-0.268616
8.98,0.849609,-0.161316,0.031799,-0.020447,0.052002,-0.24231
9.0,0.888306,-0.139465,-0.024353,0.047607,0.089172,-0.181946
9.02,0.860107,-0.100647,-0.06665,0.050049,0.099548,-0.112976
9.04,0.807739,-0.080444,-0.08783,0.010437,0.080261,-0.05896
9.06,0.735229,-0.115356,-0.099182,-0.038208,0.052368,-0.015808
9.08,0.636475,-0.172363,-0.098694,-0.079468,0.02655,0.041077
9.1,0.544067,-0.191772,-0.074951,-0.093323,0.005066,0.113953
9.12,0.491455,-0.170532,-0.06842,-0.093079,-0.010254,0.175842
9.14,0.457214,-0.137573,-0.067322,-0.108154,-0.022827,0.205017
9.16,0.41156,-0.125244,-0.061035,-0.134705,-0.032166,0.201965
9.18,0.356506,-0.155457,-0.052124,-0.163208,-0.036987,0.177002
9.2,0.31012,-0.218445,-0.043823,-0.181335,-0.037231,0.141174
9.22,0.263123,-0.297302,-0.048035,-0.182495,-0.034424,0.108398
9.24,0.230591,-0.342407,-0.072571,-0.168762,-0.035156,0.089355
9.26,0.197815,-0.339417,-0.093384,-0.143127,-0.038513,0.084473
9.28,0.161987,-0.322205,-0.103333,-0.105286,-0.038696,0.082703
9.3,0.161438,-0.303833,-0.108521,-0.05127,-0.028931,0.07959
9.32,0.157837,-0.29425,-0.096741,0.025757,-0.003662,0.077698
9.34,0.1073,-0.298767,-0.068909,0.102661,0.022339,0.072571
9.36,0.141235,-0.304077,-0.084106,0.149597,0.033264,0.055237
9.38,0.221924,-0.282166,-0.114319,0.177002,0.025146,0.048889
9.4,0.257812,-0.243103,-0.098877,0.203552,0.008179,0.04541
9.42,0.319153,-0.217468,-0.086792,0.20929,-0.024536,0.023254
9.44,0.384949,-0.221191,-0.046326,0.229431,-0.049438,-0.015015
9.46,0.442139,-0.184021,-0.000977,0.277344,-0.05542,-0.05481
9.48,0.549316,-0.126831,0.004456,0.320618,-0.052734,-0.073364
9.5,0.686707,-0.095581,-0.018127,0.330444,-0.045837,-0.069702
9.52,0.789246,-0.069153,-0.021179,0.304321,-0.043396,-0.075134
9.54,0.887085,-0.084351,-0.023987,0.273926,-0.043091,-0.096863
9.56,0.932556,-0.125183,-0.062073,0.24231,-0.037842,-0.098328
9.58,0.903931,-0.142212,-0.0896,0.192322,-0.035645,-0.07074
9.6,0.820618,-0.15448,-0.060059,0.15332,-0.038086,-0.038635
9.62,0.73877,-0.166199,-0.032715,0.147827,-0.034363,-0.014099
9.64,0.674683,-0.163513,-0.028809,0.138733,-0.022888,0.013367
9.66,0.626465,-0.165527,-0.029724,0.116699,-0.007019,0.04303
9.68,0.578735,-0.187195,-0.03656,0.09314,0.005432,0.062744
9.7,0.519653,-0.211853,-0.035828,0.066528,0.004883,0.069885
9.72,0.454834,-0.233093,-0.011902,0.031677,-0.00946,0.072632
9.74,0.402527,-0.248657,0.020874,0.005066,-0.023621,0.077393
9.76,0.36145,-0.250122,0.02832,-0.010498,-0.022522,0.082642
9.78,0.328369,-0.253113,0.021301,-0.027344,-0.010803,0.086121
9.8,0.294922,-0.266785,0.006775,-0.039062,0.001343,0.088196
9.82,0.265686,-0.277039,-0.010498,-0.039124,0.010315,0.092163
9.84,0.245117,-0.267395,-0.026306,-0.031372,0.014404,0.099976
9.86,0.237488,-0.250916,-0.038757,-0.025146,0.015808,0.106995
9.88,0.241028,-0.244629,-0.044189,-0.024414,0.015442,0.106384
9.9,0.235718,-0.264038,-0.031921,-0.016724,0.012756,0.09613
9.92,0.210083,-0.281555,-0.029236,0.006714,0.012817,0.080139
9.94,0.176086,-0.286194,-0.036377,0.027771,0.017761,0.065613
9.96,0.146179,-0.303772,-0.027222,0.042725,0.019592,0.053711
9.98,0.137085,-0.313904,-0.015381,0.070129,0.020386,0.042419
10.0,0.144165,-0.310547,-0.002014,0.107727,0.023132,0.027649
10.02,0.187988,-0.277283,0.00116,0.135925,0.02771,0.00824
10.04,0.266968,-0.24231,0.010498,0.141052,0.029541,-0.013855
10.06,0.381409,-0.212769,0.029053,0.135864,0.026245,-0.039124
10.08,0.559204,-0.198547,0.025818,0.127808,0.017761,-0.057739
10.1,0.757202,-0.177307,0.021667,0.1073,0.005981,-0.069153
10.12,0.900635,-0.161621,0.006653,0.080688,-0.010742,-0.082886
10.14,0.961426,-0.15564,-0.020813,0.04895,-0.020264,-0.097107
10.16,0.947144,-0.158875,-0.046143,0.010498,-0.023987,-0.10144
10.18,0.874329,-0.177063,-0.07843,-0.017578,-0.025452,-0.088684
10.2,0.78479,-0.2099,-0.078552,-0.031677,-0.032654,-0.06134
10.22,0.689392,-0.240417,-0.055054,-0.022095,-0.043579,-0.020569
10.24,0.608276,-0.265259,-0.021057,0.005249,-0.048889,0.026733
10.26,0.537964,-0.271118,0.012024,0.030823,-0.045593,0.073975
10.28,0.466492,-0.264709,0.026733,0.047668,-0.034546,0.111633
10.3,0.399902,-0.248901,0.023682,0.045593,-0.021545,0.13446
10.32,0.35022,-0.238098,0.018799,0.026306,-0.012329,0.141541
10.34,0.309082,-0.24823,0.03009,0.003845,-0.007202,0.134705
10.36,0.267761,-0.273743,0.044983,-0.002502,-0.003906,0.121216
10.38,0.223816,-0.288879,0.037537,0.005432,0.001099,0.1073
10.4,0.189514,-0.292053,0.025391,0.012695,0.0047,0.095032
10.42,0.158997,-0.288513,0.015991,0.019348,0.005493,0.079102
10.44,0.129333,-0.296448,0.01001,0.023193,0.00592,0.058716
10.46,0.098511,-0.304443,0.013672,0.027588,0.009033,0.038757
10.48,0.075989,-0.316528,0.02063,0.038513,0.015015,0.020996
10.5,0.066956,-0.322205,0.026978,0.050171,0.024231,0.005249
10.52,0.066528,-0.319092,0.03302,0.060242,0.035095,-0.010559
10.54,0.084106,-0.313843,0.03894,0.065369,0.042664,-0.030701
10.56,0.122437,-0.313782,0.057861,0.062378,0.041199,-0.059082
10.58,0.179993,-0.312744,0.08606,0.059143,0.029846,-0.091248
10.6,0.273132,-0.311279,0.109802,0.059387,0.019165,-0.114563
10.62,0.388367,-0.292236,0.116089,0.059265,0.017456,-0.125122
10.64,0.521912,-0.247742,0.098633,0.056458,0.017883,-0.129211
10.66,0.68573,-0.19458,0.044861,0.041626,0.017883,-0.124878
10.68,0.841675,-0.17218,-0.012878,0.016479,0.012817,-0.113953
10.7,0.943176,-0.186523,-0.036316,-0.000732,0.002319,-0.101624
10.72,0.948547,-0.192383,-0.047607,-0.001648,-0.011108,-0.083984
10.74,0.913452,-0.197021,-0.047729,0.006958,-0.023315,-0.052979
10.76,0.882202,-0.207397,-0.051392,0.016052,-0.033325,-0.008118
10.78,0.808228,-0.211365,-0.028076,0.029236,-0.039368,0.034424
10.8,0.714966,-0.219727,-0.00531,0.052917,-0.044373,0.06427
10.82,0.627014,-0.236511,0.007202,0.077759,-0.049744,0.086426
10.84,0.536377,-0.24408,0.03186,0.085938,-0.052368,0.103943
10.86,0.450989,-0.248962,0.059631,0.083252,-0.049133,0.114929
10.88,0.38031,-0.255371,0.063416,0.077759,-0.03949,0.120422
10.9,0.324524,-0.256897,0.056885,0.065247,-0.029114,0.122864
10.92,0.269104,-0.261169,0.058289,0.050171,-0.019714,0.121704
10.94,0.226257,-0.267395,0.059631,0.037964,-0.009705,0.116516
10.96,0.192139,-0.272644,0.067566,0.030762,0.000488,0.107605
10.98,0.155151,-0.280212,0.068665,0.032654,0.011169,0.092896
11.0,0.131226,-0.293701,0.070007,0.032898,0.020264,0.07489
11.02,0.118042,-0.309265,0.069946,0.035889,0.03064,0.056885
11.04,0.100586,-0.316528,0.06427,0.046021,0.042053,0.041199
11.06,0.082703,-0.310242,0.064758,0.052795,0.052124,0.026611
11.08,0.084229,-0.304565,0.066956,0.05365,0.058472,0.007202
11.1,0.107849,-0.302795,0.067322,0.048584,0.057739,-0.017822
11.12,0.158752,-0.304382,0.082947,0.041443,0.045654,-0.046326
11.14,0.22406,-0.302673,0.106812,0.040833,0.027405,-0.078491
11.16,0.285645,-0.302246,0.119263,0.052246,0.012024,-0.110962
11.18,0.363037,-0.280273,0.106384,0.064575,0.003662,-0.132507
11.2,0.480042,-0.242432,0.09021,0.060242,-0.003174,-0.141907
11.22,0.628235,-0.213013,0.070251,0.046936,-0.004333,-0.14325
11.24,0.781799,-0.205444,0.040833,0.038635,-0.002502,-0.132263
11.26,0.902344,-0.213745,0.012878,0.038879,-0.000977,-0.108215
11.28,0.958008,-0.220154,0.009949,0.041016,0.00177,-0.073242
11.3,0.928955,-0.231384,-0.007812,0.042725,0.009766,-0.033569
11.32,0.874634,-0.243164,-0.008484,0.044739,0.007202,0.008667
11.34,0.793213,-0.240845,0.023621,0.039185,-0.013977,0.052246
11.36,0.706848,-0.241455,0.049438,0.03186,-0.027161,0.085388
11.38,0.620544,-0.252197,0.073792,0.032715,-0.032654,0.107788
11.4,0.526184,-0.253052,0.089355,0.039368,-0.034607,0.121826
11.42,0.442688,-0.251465,0.099731,0.033203,-0.034546,0.128723
11.44,0.364563,-0.256226,0.112976,0.019897,-0.031494,0.129028
11.46,0.291138,-0.267944,0.115295,0.008911,-0.024841,0.124878
11.48,0.231323,-0.275269,0.116028,-0.001343,-0.013855,0.119507
11.5,0.184082,-0.282227,0.113159,-0.007935,-0.002869,0.110901
11.52,0.152649,-0.288696,0.114929,-0.01062,0.006958,0.099182
11.54,0.121765,-0.304504,0.122925,-0.000732,0.016907,0.085022
11.56,0.091431,-0.314636,0.112732,0.014587,0.029297,0.069641
11.58,0.067444,-0.314209,0.10907,0.020081,0.041626,0.053772
11.6,0.049316,-0.312744,0.101379,0.023071,0.053589,0.034851
11.62,0.047119,-0.315735,0.092468,0.023987,0.062073,0.014221
11.64,0.06488,-0.3125,0.089233,0.022217,0.064758,-0.006287
11.66,0.091187,-0.309631,0.089539,0.018494,0.059387,-0.028809
11.68,0.12262,-0.305603,0.100098,0.017029,0.045105,-0.055176
11.7,0.164795,-0.301208,0.104736,0.018066,0.024475,-0.084167
11.72,0.220886,-0.289429,0.117981,0.01178,0.002869,-0.112488
11.74,0.296936,-0.277893,0.132568,0.002747,-0.013672,-0.138123
11.76,0.38623,-0.271423,0.139038,-0.001099,-0.024597,-0.156677
11.78,0.500549,-0.259399,0.130981,-0.005615,-0.029053,-0.163879
11.8,0.632812,-0.234497,0.109253,-0.015137,-0.029053,-0.159607
11.82,0.771118,-0.219299,0.074768,-0.029541,-0.025757,-0.143921
11.84,0.879456,-0.220764,0.049805,-0.044739,-0.022095,-0.119324
11.86,0.926514,-0.229248,0.029846,-0.053406,-0.019714,-0.087463
11.88,0.91925,-0.241882,0.027405,-0.054321,-0.019775,-0.046936
11.9,0.861633,-0.25885,0.035034,-0.038025,-0.020447,-0.002502
11.92,0.782104,-0.252686,0.035461,-0.015503,-0.0224,0.042053
11.94,0.709351,-0.242676,0.035889,-0.000183,-0.026855,0.080017
11.96,0.630737,-0.248108,0.055603,0.008423,-0.032043,0.105652
11.98,0.541504,-0.251526,0.07428,0.012512,-0.037292,0.121033
12.0,0.454529,-0.250793,0.090942,0.011108,-0.039368,0.128052
12.02,0.3797,-0.251404,0.103882,0.005127,-0.036438,0.12854
12.04,0.31781,-0.263733,0.104248,0.003967,-0.027954,0.125793
12.06,0.259216,-0.270874,0.097046,0.00354,-0.01709,0.121826
12.08,0.208252,-0.2771,0.096436,0.001892,-0.008179,0.116394
12.1,0.172485,-0.285278,0.096985,0.003601,0.000793,0.107788
12.12,0.144043,-0.291504,0.094482,0.008911,0.010071,0.095215
12.14,0.117188,-0.296143,0.091064,0.013611,0.019165,0.079346
12.16,0.093079,-0.301514,0.08783,0.018799,0.027954,0.060547
12.18,0.072754,-0.300232,0.081238,0.02301,0.036072,0.039246
12.2,0.063599,-0.298706,0.078491,0.025574,0.041443,0.015747
12.22,0.075256,-0.298035,0.078552,0.029541,0.041565,-0.009766
12.24,0.111267,-0.301697,0.08667,0.033691,0.034424,-0.035156
12.26,0.154663,-0.300171,0.099609,0.035156,0.022461,-0.060425
12.28,0.212891,-0.298828,0.113159,0.030579,0.007568,-0.086121
12.3,0.289612,-0.295715,0.127197,0.021606,-0.005981,-0.107849
12.32,0.375671,-0.288879,0.136841,0.014221,-0.01416,-0.12262
12.34,0.480042,-0.270447,0.130249,0.008484,-0.017273,-0.131226
12.36,0.606873,-0.250732,0.096436,0.00238,-0.016846,-0.129822
12.38,0.746826,-0.236816,0.059204,-0.007202,-0.015381,-0.117004
12.4,0.871216,-0.245972,0.035889,-0.019897,-0.017883,-0.095276
12.42,0.933716,-0.257629,0.022278,-0.029297,-0.02063,-0.067444
12.44,0.919006,-0.271179,0.021606,-0.032043,-0.020935,-0.034058
12.46,0.836426,-0.280457,0.026428,-0.026733,-0.022339,0.003601
12.48,0.737244,-0.271362,0.042725,-0.014771,-0.028931,0.042664
12.5,0.654297,-0.268005,0.063477,-0.000366,-0.03363,0.075317
12.52,0.5672,-0.272522,0.085327,0.011597,-0.030396,0.097656
12.54,0.481445,-0.277039,0.103027,0.018616,-0.024292,0.113586
12.56,0.40686,-0.273132,0.115173,0.020447,-0.017029,0.123352
12.58,0.341248,-0.26709,0.117737,0.015625,-0.008789,0.125061
12.6,0.284485,-0.266663,0.115662,0.005432,-6.1e-05,0.118896
12.62,0.236633,-0.275146,0.109009,-0.003967,0.007385,0.108643
12.64,0.191833,-0.284729,0.102661,-0.008972,0.01355,0.096924
12.66,0.155029,-0.286865,0.09436,-0.009216,0.018677,0.085449
12.68,0.131226,-0.286804,0.090393,-0.008545,0.02124,0.069885
12.7,0.110229,-0.293701,0.085388,-0.007568,0.022583,0.047791
12.72,0.091431,-0.30127,0.084534,-0.004883,0.023438,0.023865
12.74,0.079895,-0.30835,0.085266,0.002258,0.023865,0.000366
12.76,0.084778,-0.305298,0.09082,0.012695,0.022766,-0.022034
12.78,0.108459,-0.305969,0.092346,0.029419,0.01947,-0.045227
12.8,0.15509,-0.300232,0.098022,0.036316,0.011047,-0.069336
12.82,0.230469,-0.299561,0.111877,0.03009,-0.002686,-0.09491
12.84,0.312134,-0.302246,0.124329,0.017944,-0.015442,-0.117188
12.86,0.382751,-0.295532,0.131531,0.003784,-0.022583,-0.132019
12.88,0.475708,-0.281799,0.123169,-0.012329,-0.024719,-0.139465
12.9,0.596313,-0.270996,0.098206,-0.029419,-0.020508,-0.137817
12.92,0.714417,-0.264343,0.076843,-0.045654,-0.015137,-0.125671
12.94,0.800537,-0.271729,0.057739,-0.051331,-0.013123,-0.104431
12.96,0.835815,-0.274231,0.038147,-0.046326,-0.012024,-0.073975
12.98,0.822327,-0.272278,0.023926,-0.033142,-0.012878,-0.036682
13.0,0.778076,-0.26532,0.018982,-0.019714,-0.016785,0.002136
13.02,0.71759,-0.256287,0.028687,-0.009583,-0.024231,0.035156
13.04,0.659058,-0.257568,0.038025,-0.002808,-0.034241,0.058472
13.06,0.592651,-0.259277,0.05072,0.0,-0.044128,0.074524
13.08,0.509644,-0.262329,0.072998,0.001709,-0.051025,0.084167
13.1,0.426758,-0.263855,0.086853,0.002441,-0.051392,0.090149
13.12,0.359314,-0.263245,0.093445,-0.000671,-0.045105,0.09314
13.14,0.301208,-0.265076,0.09906,-0.006714,-0.035339,0.090759
13.16,0.254761,-0.278442,0.107117,-0.006592,-0.024536,0.083923
13.18,0.210938,-0.300903,0.108765,0.004456,-0.013123,0.075867
13.2,0.179871,-0.305664,0.106018,0.013123,-0.001404,0.070007
13.22,0.156799,-0.306458,0.103882,0.015503,0.010925,0.062195
13.24,0.13092,-0.305176,0.099548,0.01532,0.022888,0.049255
13.26,0.109253,-0.310547,0.089966,0.016785,0.032104,0.031799
13.28,0.101929,-0.316345,0.086853,0.019348,0.036682,0.013733
13.3,0.105408,-0.320862,0.085144,0.024048,0.036011,-0.004517
13.32,0.118469,-0.322083,0.08728,0.02655,0.02887,-0.023804
13.34,0.133301,-0.321838,0.092957,0.028992,0.01532,-0.045471
13.36,0.15918,-0.316528,0.107971,0.026001,-0.002991,-0.068359
13.38,0.206177,-0.315002,0.128296,0.018188,-0.017395,-0.091187
13.4,0.26825,-0.304382,0.140808,0.009644,-0.022827,-0.110962
13.42,0.349304,-0.285583,0.136169,0.004333,-0.021973,-0.125
13.44,0.459839,-0.255188,0.111938,-0.005066,-0.019043,-0.132996
13.46,0.599854,-0.239685,0.078735,-0.019714,-0.017639,-0.13501
13.48,0.721252,-0.235352,0.05304,-0.032227,-0.017395,-0.131287
13.5,0.805786,-0.237,0.032288,-0.040466,-0.019958,-0.12146
13.52,0.853638,-0.244873,0.018005,-0.044983,-0.026184,-0.10144
13.54,0.854248,-0.260071,0.014282,-0.039734,-0.031921,-0.070129
13.56,0.804565,-0.264282,0.009094,-0.026001,-0.036072,-0.030029
13.58,0.725525,-0.251038,0.011841,-0.012695,-0.041321,0.01178
13.6,0.652588,-0.241211,0.023193,-0.004822,-0.048767,0.04425
13.62,0.58429,-0.248169,0.038269,-0.001526,-0.054321,0.065063
13.64,0.506592,-0.252808,0.059509,-0.001038,-0.054382,0.07959
13.66,0.431152,-0.257263,0.078979,-0.001221,-0.050171,0.088867
13.68,0.361633,-0.263062,0.093628,0.000244,-0.041687,0.091553
13.7,0.300659,-0.267273,0.10022,0.002563,-0.030884,0.088562
13.72,0.254028,-0.272217,0.096497,0.001404,-0.019653,0.081421
13.74,0.214355,-0.281738,0.096375,-0.002502,-0.010254,0.071167
13.76,0.180847,-0.293823,0.098938,-0.003784,-0.000854,0.06012
13.78,0.156799,-0.29895,0.098938,-0.000671,0.009644,0.04834
13.8,0.138672,-0.303162,0.093018,0.004333,0.020264,0.033691
13.82,0.129944,-0.310974,0.092041,0.007812,0.028748,0.017334
13.84,0.132263,-0.315979,0.093018,0.009705,0.034973,0.001526
13.86,0.149841,-0.317505,0.09613,0.009277,0.038391,-0.013733
13.88,0.179749,-0.319031,0.101379,0.009766,0.037292,-0.03009
13.9,0.21698,-0.3172,0.108826,0.009583,0.029907,-0.047852
13.92,0.266174,-0.304382,0.111816,0.005859,0.021362,-0.065002
13.94,0.341248,-0.284607,0.111572,0.001038,0.015198,-0.079651
13.96,0.44165,-0.256226,0.082764,-0.002319,0.014648,-0.088562
13.98,0.57135,-0.239746,0.048218,-0.011963,0.012878,-0.090149
14.0,0.690002,-0.244507,0.032288,-0.020813,0.005798,-0.086853
14.02,0.772705,-0.250549,0.023438,-0.022644,-0.00238,-0.075134
14.04,0.817322,-0.246399,0.016479,-0.020813,-0.007385,-0.054565
14.06,0.827393,-0.249023,0.000793,-0.012085,-0.007324,-0.026489
14.08,0.799011,-0.254211,-0.013611,-0.001648,-0.008301,0.006287
14.1,0.729492,-0.250244,-0.003662,0.0047,-0.016724,0.037476
14.12,0.649231,-0.249207,0.018738,0.009766,-0.029419,0.060486
14.14,0.575317,-0.257935,0.041626,0.013611,-0.036804,0.077515
14.16,0.491699,-0.266235,0.068726,0.018372,-0.037415,0.090027
14.18,0.409424,-0.266052,0.084656,0.022522,-0.033264,0.097229
14.2,0.340149,-0.264526,0.095581,0.02063,-0.027039,0.098145
14.22,0.285645,-0.271912,0.098083,0.016052,-0.017334,0.094116
14.24,0.240356,-0.281616,0.103271,0.012268,-0.005981,0.088013
14.26,0.205872,-0.292725,0.103455,0.013367,0.004944,0.080444
14.28,0.17981,-0.297913,0.107361,0.014893,0.013977,0.071167
14.3,0.151184,-0.3078,0.109985,0.021667,0.021545,0.058716
14.32,0.127625,-0.314148,0.105225,0.028137,0.029114,0.044739
14.34,0.11145,-0.317322,0.105042,0.03302,0.035583,0.03009
14.36,0.103027,-0.320984,0.108032,0.040405,0.039612,0.013428
14.38,0.109985,-0.327454,0.117554,0.054077,0.041321,-0.003601
14.4,0.129395,-0.325256,0.108765,0.070496,0.041626,-0.019287
14.42,0.164124,-0.320374,0.113647,0.077759,0.032959,-0.034424
14.44,0.205261,-0.325806,0.11499,0.08197,0.016296,-0.053284
14.46,0.239685,-0.313782,0.13739,0.078613,-0.003845,-0.072205
14.48,0.285889,-0.292786,0.143433,0.069885,-0.018188,-0.090759
14.5,0.376404,-0.271362,0.148254,0.048096,-0.02301,-0.10553
14.52,0.498108,-0.245544,0.132874,0.030945,-0.016418,-0.112305
14.54,0.643616,-0.237183,0.108582,0.02301,-0.001343,-0.109863
14.56,0.767395,-0.247925,0.069214,0.022339,0.013855,-0.097595
14.58,0.853638,-0.247559,0.040588,0.017273,0.021851,-0.07489
14.6,0.884216,-0.252563,0.031433,0.019714,0.023315,-0.047729
14.62,0.862671,-0.261536,0.017456,0.031372,0.022034,-0.016663
14.64,0.803406,-0.262268,0.004333,0.043152,0.009583,0.018433
14.66,0.723938,-0.251465,0.01062,0.043457,-0.014343,0.048096
14.68,0.648499,-0.249939,0.036621,0.039734,-0.035889,0.070129
14.7,0.559509,-0.252075,0.060852,0.04187,-0.045898,0.083618
14.72,0.466125,-0.249939,0.08551,0.040039,-0.0495,0.09082
14.74,0.383362,-0.256226,0.110596,0.035339,-0.04718,0.092896
14.76,0.311218,-0.26123,0.125549,0.027832,-0.036438,0.091248
14.78,0.251465,-0.267944,0.136963,0.019653,-0.020752,0.087097
14.8,0.207825,-0.274597,0.137512,0.016602,-0.002197,0.081604
14.82,0.178711,-0.277649,0.13501,0.018921,0.015625,0.07428
14.84,0.15741,-0.285767,0.128479,0.028198,0.029846,0.063354
14.86,0.135193,-0.288879,0.118591,0.036499,0.039795,0.049866
14.88,0.120544,-0.289612,0.110779,0.041199,0.045471,0.034058
14.9,0.115112,-0.292908,0.106262,0.041931,0.046204,0.014709
14.92,0.123108,-0.295227,0.109741,0.040222,0.040527,-0.006592
14.94,0.14093,-0.292114,0.121033,0.039673,0.02948,-0.028992
14.96,0.172058,-0.30188,0.142639,0.042603,0.014038,-0.051147
14.98,0.206238,-0.307739,0.171631,0.051697,0.000977,-0.068665
15.0,0.250305,-0.299622,0.175415,0.064819,-0.003601,-0.083313
15.02,0.319458,-0.283142,0.164368,0.066589,-0.004517,-0.095032
15.04,0.410706,-0.27124,0.161072,0.055176,-0.007263,-0.105286
15.06,0.513245,-0.258118,0.15802,0.04187,-0.011597,-0.11261
15.08,0.62439,-0.254639,0.139221,0.033875,-0.009949,-0.110779
15.1,0.733398,-0.255615,0.114563,0.023132,-0.001404,-0.093994
15.12,0.811951,-0.255554,0.096497,0.009766,0.008972,-0.067261
15.14,0.842896,-0.254639,0.074402,0.001404,0.018555,-0.038269
15.16,0.827515,-0.256836,0.055054,-0.005676,0.021667,-0.008118
15.18,0.774658,-0.255615,0.056763,-0.015808,0.011414,0.0224
15.2,0.702881,-0.250732,0.080078,-0.022339,-0.007935,0.049622
15.22,0.621338,-0.25293,0.122253,-0.010193,-0.022095,0.071289
15.24,0.521912,-0.263306,0.145508,0.024536,-0.022705,0.088074
15.26,0.439148,-0.260498,0.153137,0.0495,-0.015625,0.102112
15.28,0.367432,-0.257812,0.159851,0.058716,-0.005493,0.108765
15.3,0.297485,-0.25592,0.158325,0.055115,0.005554,0.10675
15.32,0.242676,-0.261597,0.158386,0.043518,0.014709,0.099426
15.34,0.195435,-0.273499,0.158936,0.03241,0.022217,0.089172
15.36,0.160095,-0.280518,0.157898,0.020508,0.027344,0.077209
15.38,0.130615,-0.284058,0.156006,0.008301,0.030823,0.062683
15.4,0.106323,-0.293152,0.1604,0.000244,0.031067,0.044617
15.42,0.087646,-0.29834,0.15332,-0.003845,0.027893,0.024048
15.44,0.077393,-0.300781,0.155518,-0.011841,0.02063,0.001404
15.46,0.064026,-0.31189,0.183105,-0.003967,0.010681,-0.02063
15.48,0.080872,-0.319031,0.185608,0.019531,0.004822,-0.039062
15.5,0.122681,-0.310669,0.188843,0.026978,-0.000671,-0.054199
15.52,0.170044,-0.30011,0.186951,0.023804,-0.009827,-0.072937
15.54,0.232117,-0.280518,0.186096,0.012207,-0.024475,-0.094604
15.56,0.328979,-0.261841,0.174255,-0.004089,-0.037292,-0.113586
15.58,0.446655,-0.240295,0.152527,-0.016663,-0.043579,-0.124817
15.6,0.581726,-0.22876,0.110535,-0.030273,-0.039246,-0.126038
15.62,0.714844,-0.230591,0.082153,-0.044983,-0.032471,-0.116638
15.64,0.81427,-0.233826,0.06488,-0.052979,-0.029785,-0.099121
15.66,0.870239,-0.234619,0.052307,-0.053589,-0.027832,-0.073975
15.68,0.880615,-0.244934,0.049072,-0.040649,-0.022583,-0.040955
15.7,0.84375,-0.260681,0.046997,-0.015259,-0.014771,-0.001282
15.72,0.763123,-0.25354,0.054871,0.003845,-0.012451,0.038696
15.74,0.682312,-0.249146,0.074829,0.015442,-0.01709,0.070801
15.76,0.596924,-0.253845,0.097778,0.020325,-0.019958,0.092407
15.78,0.502258,-0.257324,0.123535,0.018982,-0.020081,0.10614
15.8,0.410645,-0.25647,0.140869,0.011841,-0.018188,0.113281
15.82,0.330994,-0.25592,0.153076,-0.001465,-0.015381,0.113159
15.84,0.26355,-0.263245,0.161499,-0.016907,-0.009949,0.107239
15.86,0.210144,-0.269897,0.15741,-0.034546,-0.00177,0.0979
15.88,0.167603,-0.274597,0.150757,-0.056213,0.005493,0.087219
15.9,0.136658,-0.283203,0.146667,-0.074829,0.009399,0.073242
15.92,0.110046,-0.28894,0.148926,-0.088684,0.010681,0.054382
15.94,0.085938,-0.303345,0.156189,-0.091003,0.010498,0.033325
15.96,0.074158,-0.301025,0.176331,-0.080933,0.011536,0.012024
15.98,0.057129,-0.331848,0.198792,-0.036072,0.01416,-0.010376
16.0,0.067261,-0.332642,0.165161,0.011047,0.020691,-0.029663
16.02,0.10199,-0.313538,0.148254,0.026428,0.016724,-0.045471
16.04,0.139404,-0.308655,0.148315,0.028137,0.001648,-0.068115
16.06,0.187988,-0.304077,0.159058,0.021912,-0.018005,-0.093079
16.08,0.25885,-0.292419,0.185913,0.013062,-0.03363,-0.113464
16.1,0.341858,-0.286743,0.190002,0.015137,-0.038818,-0.127441
16.12,0.456055,-0.259399,0.158142,0.013855,-0.035095,-0.133911
16.14,0.608521,-0.235596,0.118469,-0.007385,-0.032471,-0.13385
16.16,0.76947,-0.229126,0.084595,-0.036133,-0.03656,-0.126282
16.18,0.883972,-0.236572,0.058411,-0.058228,-0.040283,-0.108704
16.2,0.927551,-0.244141,0.029297,-0.064636,-0.034607,-0.07959
16.22,0.912292,-0.251953,0.013062,-0.05304,-0.023438,-0.038269
16.24,0.85022,-0.258606,0.006531,-0.029724,-0.016724,0.008972
16.26,0.756104,-0.242371,0.017212,-0.011597,-0.018616,0.05072
16.28,0.672119,-0.243713,0.04187,0.000305,-0.026611,0.080872
16.3,0.5802,-0.251404,0.069458,0.01123,-0.031677,0.100647
16.32,0.486206,-0.255493,0.094971,0.016235,-0.034546,0.112366
16.34,0.395508,-0.25415,0.114563,0.01178,-0.035156,0.116272
16.36,0.312317,-0.257202,0.12915,0.000854,-0.030273,0.11322
16.38,0.241089,-0.266846,0.142334,-0.012451,-0.019836,0.106323
16.4,0.185791,-0.277344,0.145752,-0.021973,-0.004822,0.097778
16.42,0.149109,-0.285828,0.143433,-0.027893,0.01001,0.087402
16.44,0.122314,-0.290771,0.138184,-0.031555,0.021179,0.073181
16.46,0.094604,-0.299377,0.148193,-0.028076,0.026245,0.055115
16.48,0.070435,-0.312256,0.144104,-0.012512,0.029541,0.034119
16.5,0.057983,-0.310059,0.135193,-0.001892,0.032227,0.012817
16.52,0.061157,-0.3078,0.128784,0.003357,0.032959,-0.010681
16.54,0.079712,-0.307129,0.126282,0.009644,0.029358,-0.035645
16.56,0.10968,-0.302185,0.126953,0.016968,0.019531,-0.062683
16.58,0.165527,-0.293945,0.127869,0.015137,0.004272,-0.08905
16.6,0.243958,-0.280884,0.127136,0.007324,-0.009888,-0.112854
16.62,0.334839,-0.261719,0.120605,-0.004639,-0.02002,-0.132446
16.64,0.449585,-0.25061,0.113037,-0.015869,-0.029053,-0.14563
16.66,0.588562,-0.246277,0.099976,-0.033875,-0.032837,-0.149353
16.68,0.723511,-0.256836,0.09375,-0.046509,-0.032959,-0.140564
16.7,0.827087,-0.266968,0.076294,-0.044006,-0.027588,-0.118347
16.72,0.884766,-0.263489,0.043213,-0.038025,-0.018616,-0.084167
16.74,0.890198,-0.261719,0.015747,-0.029968,-0.008667,-0.041687
16.76,0.844666,-0.259399,0.002808,-0.017822,-0.00592,0.002991
16.78,0.769958,-0.247253,0.009644,-0.008972,-0.017395,0.042664
16.8,0.697571,-0.243225,0.035583,-0.00592,-0.034241,0.071167
16.82,0.612183,-0.248779,0.061035,-0.001648,-0.041199,0.09082
16.84,0.518921,-0.25238,0.085999,0.000977,-0.04126,0.104736
16.86,0.433594,-0.252747,0.108032,-0.001404,-0.039551,0.111267
16.88,0.355774,-0.259949,0.128662,-0.003601,-0.034424,0.110291
16.9,0.285217,-0.270813,0.137817,-0.003418,-0.023865,0.105713
16.92,0.228333,-0.277283,0.138733,-0.00354,-0.009949,0.100647
16.94,0.188416,-0.283447,0.136169,-0.00293,0.004333,0.093933
16.96,0.158264,-0.289246,0.126953,-0.001831,0.016235,0.083679
16.98,0.129211,-0.292419,0.120483,-0.00238,0.023682,0.068909
17.0,0.103027,-0.301086,0.119568,-0.002991,0.027161,0.049133
17.02,0.081787,-0.308655,0.116882,-0.002747,0.029358,0.025818
17.04,0.072815,-0.31012,0.116394,-0.003906,0.030151,0.001709
17.06,0.08197,-0.311707,0.11731,-0.000916,0.02832,-0.022339
17.08,0.107727,-0.30481,0.122742,0.006287,0.022461,-0.046814
17.1,0.153381,-0.301758,0.128784,0.013916,0.010315,-0.072998
17.12,0.236023,-0.299683,0.128662,0.009216,-0.004456,-0.09729
17.14,0.32666,-0.294434,0.140198,-0.005981,-0.016724,-0.116089
17.16,0.409424,-0.291931,0.136414,-0.019409,-0.025208,-0.127991
17.18,0.514954,-0.283752,0.133057,-0.033936,-0.032532,-0.130188
17.2,0.635315,-0.277893,0.10907,-0.051575,-0.030945,-0.122253
17.22,0.73938,-0.26825,0.072937,-0.070557,-0.026978,-0.106506
17.24,0.80835,-0.258057,0.037354,-0.087097,-0.026794,-0.084045
17.26,0.838562,-0.251587,0.01709,-0.093018,-0.026611,-0.054932
17.28,0.826233,-0.258911,0.003662,-0.07605,-0.026367,-0.021484
17.3,0.774353,-0.255188,-0.010437,-0.05072,-0.027405,0.014648
17.32,0.701111,-0.242004,-0.0047,-0.031677,-0.031372,0.048462
17.34,0.628052,-0.241394,0.009399,-0.014893,-0.036865,0.072754
17.36,0.545532,-0.251099,0.028442,-0.002747,-0.042664,0.08783
17.38,0.451538,-0.257629,0.057068,0.005066,-0.044861,0.096924
17.4,0.367249,-0.26178,0.077637,0.007629,-0.03894,0.102173
17.42,0.300415,-0.266235,0.087158,0.003662,-0.025757,0.103699
17.44,0.243835,-0.271851,0.088684,-0.004272,-0.010193,0.101074
17.46,0.200073,-0.28009,0.082825,-0.015503,0.004517,0.09491
17.48,0.166443,-0.285156,0.078796,-0.031128,0.016174,0.08551
17.5,0.13916,-0.29303,0.097717,-0.039429,0.022827,0.071594
17.52,0.111267,-0.30658,0.104614,-0.02655,0.027893,0.050842
17.54,0.082642,-0.319763,0.109619,-0.003052,0.031494,0.027344
17.56,0.066406,-0.325684,0.107605,0.025146,0.035278,0.00592
17.58,0.078308,-0.315918,0.107422,0.046021,0.038574,-0.014954
17.6,0.114014,-0.308777,0.104614,0.059509,0.037598,-0.038269
17.62,0.167908,-0.301819,0.105835,0.06134,0.030579,-0.063232
17.64,0.244873,-0.299072,0.117981,0.049072,0.01593,-0.089355
17.66,0.34082,-0.301453,0.133606,0.029907,-0.000244,-0.112
17.68,0.444336,-0.296692,0.127258,0.008789,-0.012878,-0.124451
17.7,0.554138,-0.284851,0.117126,-0.01123,-0.020752,-0.126709
17.72,0.662109,-0.28064,0.086853,-0.032349,-0.022217,-0.118774
17.74,0.746338,-0.273865,0.055969,-0.051941,-0.021484,-0.10083
17.76,0.798767,-0.263245,0.035645,-0.063843,-0.020203,-0.075134
17.78,0.815186,-0.262878,0.021667,-0.054688,-0.016296,-0.043579
17.8,0.80072,-0.262939,-0.003235,-0.028503,-0.011353,-0.006897
17.82,0.751465,-0.259888,-0.008972,-0.007263,-0.012207,0.02948
17.84,0.682129,-0.247498,0.006409,0.006165,-0.021057,0.057739
17.86,0.614624,-0.250854,0.022827,0.012939,-0.031738,0.075684
17.88,0.530701,-0.260986,0.048218,0.015198,-0.037354,0.085815
17.9,0.43988,-0.269714,0.073669,0.016357,-0.037659,0.092957
17.92,0.360291,-0.272949,0.085327,0.016174,-0.032227,0.097473
17.94,0.294495,-0.274536,0.091553,0.009521,-0.022949,0.097778
17.96,0.239929,-0.282898,0.096252,0.000244,-0.011902,0.093506
17.98,0.194763,-0.290588,0.099609,-0.007263,-0.001282,0.086548
18.0,0.162659,-0.294983,0.104614,-0.008728,0.00824,0.076843
18.02,0.135864,-0.306335,0.104187,0.000183,0.016479,0.062805
18.04,0.110718,-0.311279,0.097839,0.01178,0.022766,0.046204
18.06,0.093506,-0.310425,0.09314,0.020874,0.028015,0.027771
18.08,0.086731,-0.305542,0.091431,0.030273,0.031921,0.005676
18.1,0.09668,-0.307556,0.08551,0.043701,0.032043,-0.01947
18.12,0.120605,-0.303162,0.080017,0.053589,0.025696,-0.044617
18.14,0.159973,-0.294189,0.08844,0.052063,0.012085,-0.070557
18.16,0.220886,-0.289612,0.106812,0.040344,-0.003479,-0.098022
18.18,0.297607,-0.290405,0.126953,0.029053,-0.01239,-0.120483
18.2,0.386047,-0.282532,0.114624,0.023193,-0.011353,-0.132141
18.22,0.508057,-0.272888,0.106689,0.011536,-0.010437,-0.132935
18.24,0.630554,-0.272095,0.095764,-0.006104,-0.008118,-0.129089
18.26,0.734863,-0.267822,0.087463,-0.022522,-0.006592,-0.117615
18.28,0.822937,-0.26709,0.061157,-0.025696,-0.002319,-0.093994
18.3,0.875366,-0.273499,0.026367,-0.021545,0.005188,-0.058105
18.32,0.875305,-0.274597,0.009399,-0.018433,0.006531,-0.015503
18.34,0.811035,-0.266235,0.014526,-0.011047,-0.002502,0.024292
18.36,0.720581,-0.254517,0.019287,0.004822,-0.018616,0.056885
18.38,0.641541,-0.252441,0.032532,0.014526,-0.03418,0.081116
18.4,0.56073,-0.258118,0.060852,0.014832,-0.042297,0.09668
18.42,0.473572,-0.258484,0.082886,0.011108,-0.043457,0.105896
18.44,0.394531,-0.260376,0.09906,0.004333,-0.039307,0.109863
18.46,0.32489,-0.266785,0.109009,-0.004211,-0.030579,0.108765
18.48,0.265076,-0.275635,0.119812,-0.009338,-0.018799,0.10498
18.5,0.210449,-0.290649,0.122864,-0.004211,-0.006653,0.097839
18.52,0.170776,-0.297668,0.115356,0.001282,0.004089,0.088135
18.54,0.142334,-0.302551,0.110596,0.002869,0.011963,0.075989
18.56,0.119568,-0.307129,0.106873,0.005859,0.018311,0.060059
18.58,0.094971,-0.313049,0.104553,0.012329,0.023804,0.040222
18.6,0.074158,-0.31311,0.097839,0.019531,0.029785,0.019043
18.62,0.065674,-0.307739,0.095398,0.023865,0.033386,-0.003967
18.64,0.075623,-0.3078,0.105347,0.03125,0.032837,-0.028748
18.66,0.085632,-0.317505,0.115051,0.046997,0.028931,-0.056335
18.68,0.108948,-0.307373,0.123352,0.052124,0.021118,-0.084473
18.7,0.167664,-0.289429,0.141235,0.043213,0.011047,-0.111023
18.72,0.255981,-0.290039,0.151062,0.038635,0.004272,-0.13562
18.74,0.375061,-0.280273,0.141907,0.038269,-0.000549,-0.149963
18.76,0.512268,-0.257812,0.11499,0.023682,-0.004211,-0.152344
18.78,0.647583,-0.242065,0.093994,-0.001465,-0.010742,-0.147278
18.8,0.773682,-0.243652,0.069153,-0.023804,-0.014832,-0.135071
18.82,0.869873,-0.246399,0.032471,-0.042908,-0.014587,-0.112
18.84,0.91272,-0.237366,0.00061,-0.056946,-0.012085,-0.078674
18.86,0.908447,-0.234314,-0.015381,-0.057312,-0.012268,-0.041382
18.88,0.867432,-0.238708,-0.017212,-0.037415,-0.019043,-0.004211
18.9,0.799011,-0.231384,-0.005432,-0.014587,-0.028259,0.03186
18.92,0.721619,-0.230591,0.015015,0.004639,-0.033569,0.062927
18.94,0.64386,-0.233582,0.032043,0.021667,-0.03656,0.086731
18.96,0.549133,-0.24469,0.055969,0.03595,-0.037903,0.101685
18.98,0.448792,-0.251465,0.08075,0.041992,-0.035767,0.112244
19.0,0.360779,-0.25769,0.104187,0.037659,-0.028809,0.118286
19.02,0.287354,-0.264771,0.122803,0.027954,-0.018005,0.119019
19.04,0.23175,-0.272156,0.135193,0.019348,-0.005066,0.114746
19.06,0.190491,-0.28656,0.138916,0.015808,0.009033,0.10675
19.08,0.155212,-0.294434,0.139832,0.018677,0.021118,0.096375
19.1,0.12738,-0.293152,0.136597,0.0271,0.02948,0.082642
19.12,0.105835,-0.299622,0.132996,0.040588,0.034607,0.063904
19.14,0.084656,-0.307556,0.127319,0.057922,0.038757,0.040161
19.16,0.068909,-0.307007,0.118958,0.070129,0.039612,0.014526
19.18,0.065063,-0.308411,0.119751,0.077637,0.034546,-0.01355
19.2,0.081482,-0.30835,0.125427,0.08374,0.024414,-0.042236
19.22,0.133667,-0.303955,0.132629,0.081726,0.011108,-0.066345
19.24,0.21875,-0.309753,0.14447,0.064636,-0.002808,-0.084045
19.26,0.289001,-0.309326,0.16095,0.039734,-0.017456,-0.099304
19.28,0.36615,-0.30188,0.186768,0.014404,-0.030945,-0.111877
19.3,0.475891,-0.294983,0.168823,-0.005615,-0.036804,-0.118347
19.32,0.602539,-0.267029,0.13916,-0.026367,-0.032288,-0.115417
19.34,0.716614,-0.249451,0.09198,-0.036499,-0.017395,-0.105591
19.36,0.809814,-0.238281,0.038757,-0.030029,-0.001343,-0.0896
19.38,0.860046,-0.232361,-0.007446,-0.012146,0.007751,-0.06781
19.4,0.860962,-0.22821,-0.032898,0.005737,0.007202,-0.038513
19.42,0.824036,-0.230957,-0.025757,0.016357,-0.002808,-0.004761
19.44,0.744873,-0.228577,0.00647,0.029053,-0.01947,0.023987
19.46,0.655029,-0.237061,0.029846,0.043945,-0.038879,0.044495
19.48,0.566223,-0.247131,0.058228,0.043884,-0.056946,0.060059
19.5,0.475708,-0.247681,0.088745,0.032471,-0.066284,0.071106
19.52,0.386719,-0.24762,0.116821,0.016418,-0.064636,0.075745
19.54,0.303406,-0.24939,0.141174,0.000488,-0.054321,0.074219
19.56,0.238831,-0.262512,0.155823,-0.011841,-0.036072,0.06781
19.58,0.186462,-0.276489,0.170044,-0.01532,-0.015381,0.059326
19.6,0.15033,-0.288269,0.174927,-0.002014,0.004761,0.050171
19.62,0.124512,-0.278503,0.173157,0.011719,0.023315,0.036804
19.64,0.117676,-0.299622,0.138916,0.016968,0.042908,0.016052
19.66,0.111694,-0.295654,0.134949,0.028503,0.048584,-0.001587
19.68,0.108398,-0.280762,0.16156,0.037842,0.046387,-0.025696
19.7,0.12854,-0.299377,0.156677,0.043518,0.051086,-0.056213
19.72,0.141296,-0.310669,0.162048,0.065979,0.050415,-0.079407
19.74,0.165833,-0.299744,0.164307,0.087341,0.046631,-0.098389
19.76,0.210938,-0.289001,0.157593,0.095459,0.040222,-0.117981
19.78,0.274475,-0.294739,0.147644,0.083069,0.018005,-0.136169
19.8,0.331177,-0.306946,0.155457,0.061829,-0.014465,-0.15155
19.82,0.356995,-0.313538,0.173889,0.054688,-0.048584,-0.154968
19.84,0.391602,-0.285095,0.178528,0.065063,-0.070007,-0.144531
19.86,0.447083,-0.248474,0.175598,0.07782,-0.069641,-0.127258
19.88,0.511841,-0.221069,0.154663,0.086609,-0.047241,-0.10968
19.9,0.557983,-0.199463,0.120667,0.091614,-0.017639,-0.09198
19.92,0.583252,-0.18103,0.087585,0.091125,0.00354,-0.077026
19.94,0.584351,-0.172241,0.083374,0.093994,0.009705,-0.065979
19.96,0.591736,-0.178162,0.086121,0.104309,0.004639,-0.056946
19.98,0.596985,-0.184753,0.091736,0.113464,-0.001648,-0.049072
20.0,0.590332,-0.166565,0.086487,0.112488,-0.013184,-0.045532
20.02,0.569336,-0.152527,0.082275,0.110535,-0.03595,-0.048828
20.04,0.560181,-0.144043,0.07373,0.112122,-0.060974,-0.058289
20.06,0.562134,-0.146729,0.0755,0.110718,-0.080017,-0.068298
20.08,0.52594,-0.160278,0.104858,0.116028,-0.096985,-0.08075
20.1,0.492065,-0.159424,0.14679,0.139526,-0.108032,-0.092896
20.12,0.454712,-0.158936,0.156982,0.190491,-0.087952,-0.104736
20.14,0.449951,-0.114929,0.141174,0.23175,-0.045532,-0.117432
20.16,0.467041,-0.121399,0.153015,0.215149,-0.018982,-0.132935
20.18,0.472107,-0.138,0.156616,0.196899,0.000488,-0.148987
20.2,0.464783,-0.120667,0.144348,0.184875,0.021912,-0.156311
20.22,0.453674,-0.119263,0.152039,0.18634,0.032715,-0.161072
20.24,0.51062,-0.097046,0.144775,0.209839,0.040283,-0.169922
20.26,0.516296,-0.1026,0.138367,0.182312,0.022705,-0.166809
20.28,0.524658,-0.06604,0.194214,0.103821,-0.0047,-0.169922
20.3,0.532837,-0.081299,0.210388,0.046387,-0.012329,-0.173523
20.32,0.540466,-0.076843,0.159424,0.039551,0.012512,-0.177063
20.34,0.575867,-0.063293,0.11554,0.070068,0.060303,-0.178589
20.36,0.585632,-0.068542,0.098572,0.074036,0.095764,-0.172974
20.38,0.593811,-0.041138,0.093567,0.062744,0.104919,-0.163391
20.4,0.604309,-0.006958,0.083252,0.070007,0.104919,-0.161621
20.42,0.601929,0.028809,0.102173,0.093689,0.105347,-0.167053
20.44,0.600891,0.03064,0.136719,0.153931,0.130798,-0.183899
20.46,0.57605,-0.003296,0.13501,0.229004,0.186401,-0.200928
20.48,0.567749,-0.005432,0.137024,0.295044,0.239868,-0.201782
20.5,0.555481,0.017883,0.166382,0.361938,0.273743,-0.198059
20.52,0.546875,0.029541,0.173889,0.391052,0.277039,-0.187073
20.54,0.518921,0.047241,0.210144,0.384766,0.260925,-0.178772
20.56,0.450317,0.025818,0.230896,0.365601,0.241577,-0.164917
20.58,0.42157,0.01825,0.274231,0.365662,0.230652,-0.139465
20.6,0.380188,0.037415,0.270081,0.39801,0.24231,-0.111328
20.62,0.352478,0.079773,0.269409,0.432129,0.251892,-0.099854
20.64,0.338318,0.116455,0.28009,0.445496,0.253479,-0.110352
20.66,0.31366,0.082825,0.298035,0.436523,0.242432,-0.123108
20.68,0.276855,0.079529,0.328613,0.410889,0.221558,-0.120178
20.7,0.254883,0.091187,0.32666,0.389282,0.201721,-0.103577
20.72,0.231995,0.150635,0.327698,0.395874,0.189453,-0.100525
20.74,0.239197,0.158569,0.333923,0.414429,0.177307,-0.1073
20.76,0.246643,0.157288,0.324402,0.40387,0.163452,-0.110046
20.78,0.224854,0.183533,0.318909,0.364563,0.134033,-0.120056
20.8,0.198181,0.186646,0.347473,0.313171,0.09967,-0.128479
20.82,0.143555,0.192749,0.378174,0.280823,0.076904,-0.139771
20.84,0.132751,0.175537,0.397888,0.271423,0.073914,-0.143982
20.86,0.173584,0.179504,0.375,0.266235,0.08429,-0.147034
20.88,0.184082,0.173767,0.336365,0.231201,0.082703,-0.147644
20.9,0.187683,0.176697,0.309265,0.178772,0.061279,-0.139465
20.92,0.177612,0.167236,0.279602,0.144409,0.025757,-0.118591
20.94,0.153503,0.165588,0.260559,0.130737,-0.016235,-0.080566
20.96,0.197937,0.225586,0.256104,0.132385,-0.053162,-0.043762
20.98,0.23053,0.268188,0.259521,0.145935,-0.085083,-0.02356
21.0,0.250977,0.309509,0.2677,0.162781,-0.108215,-0.010803
21.02,0.292603,0.340332,0.268616,0.174316,-0.115784,-0.004517
21.04,0.346436,0.361633,0.264343,0.172485,-0.115479,-0.00177
21.06,0.392029,0.374817,0.247131,0.146423,-0.113342,0.003906
21.08,0.427917,0.390686,0.239502,0.103394,-0.106628,0.006531
21.1,0.452332,0.40094,0.222168,0.060059,-0.085693,0.005554
21.12,0.488342,0.397339,0.192444,0.026489,-0.052002,0.005005
21.14,0.546021,0.399292,0.14624,-0.002563,-0.016663,0.003845
21.16,0.577698,0.402954,0.112976,-0.027832,0.011597,0.002014
21.18,0.595032,0.399841,0.081177,-0.047302,0.025146,0.004883
21.2,0.591797,0.407776,0.070068,-0.062561,0.022888,0.015442
21.22,0.56543,0.39447,0.103577,-0.051453,0.022156,0.027344
21.24,0.537109,0.395142,0.133484,-0.011169,0.04425,0.038208
21.26,0.516296,0.403198,0.144104,0.008301,0.066284,0.05011
21.28,0.458252,0.371399,0.161987,-0.004578,0.072815,0.057739
21.3,0.390808,0.331055,0.193481,-0.013489,0.079773,0.057983
21.32,0.353333,0.294006,0.215637,-0.02301,0.088745,0.05957
21.34,0.311218,0.286255,0.235107,-0.051636,0.095825,0.061523
21.36,0.264587,0.28302,0.251953,-0.068909,0.102661,0.057495
21.38,0.231812,0.269104,0.270081,-0.068237,0.108337,0.048645
21.4,0.197815,0.248413,0.283081,-0.072205,0.109741,0.038269
21.42,0.16626,0.239441,0.28418,-0.071167,0.10968,0.02771
21.44,0.139832,0.22998,0.304993,-0.055847,0.109009,0.01416
21.46,0.110107,0.228577,0.351257,-0.018982,0.11908,-0.001038
21.48,0.078674,0.223206,0.345154,0.027893,0.142639,-0.016418
21.5,0.043396,0.223633,0.328186,0.064148,0.148071,-0.031372
21.52,0.016724,0.20166,0.357605,0.104919,0.134033,-0.045837
21.54,0.036743,0.224854,0.369995,0.126282,0.112427,-0.049927
21.56,0.047485,0.250427,0.348022,0.118164,0.080566,-0.04187
21.58,0.026428,0.240662,0.330078,0.121277,0.046448,-0.038391
21.6,0.038269,0.22821,0.329529,0.132324,0.012634,-0.041565
21.62,0.074524,0.235413,0.338257,0.138306,-0.020996,-0.032837
21.64,0.111511,0.236816,0.344177,0.15155,-0.045532,-0.009521
21.66,0.183411,0.247498,0.31897,0.196411,-0.040649,0.02356
21.68,0.250854,0.308716,0.281982,0.267639,-0.007996,0.053101
21.7,0.349365,0.379456,0.217957,0.342651,0.035889,0.0625
21.72,0.444702,0.420166,0.171814,0.373291,0.066284,0.050598
21.74,0.545959,0.44574,0.124939,0.36615,0.084839,0.025269
21.76,0.654907,0.475464,0.078735,0.331543,0.086914,0.000671
21.78,0.767151,0.504761,0.028503,0.258179,0.073364,-0.019958
21.8,0.817078,0.507935,-0.002991,0.156921,0.040649,-0.048401
21.82,0.837952,0.453491,0.021667,0.097412,0.008545,-0.06366
21.84,0.787415,0.471558,0.048523,0.114075,0.015381,-0.052612
21.86,0.679199,0.494019,-0.01825,0.159668,0.037476,-0.035461
21.88,0.595703,0.487427,-0.019958,0.254456,0.034485,-0.041931
21.9,0.494202,0.439636,0.058411,0.352417,0.018677,-0.053284
21.92,0.363831,0.385437,0.128845,0.407227,0.015259,-0.077637
21.94,0.263611,0.346497,0.185059,0.404419,0.020813,-0.099243
21.96,0.176208,0.318604,0.209595,0.336487,0.023438,-0.117432
21.98,0.100708,0.29541,0.241577,0.231384,0.026367,-0.122314
22.0,0.05188,0.299316,0.243774,0.118103,0.030212,-0.121094
22.02,0.022278,0.312805,0.236816,0.012695,0.032349,-0.114075
22.04,0.000183,0.323914,0.218872,-0.067627,0.029968,-0.100647
22.06,-0.0224,0.330811,0.206604,-0.10968,0.022644,-0.081909
22.08,-0.032898,0.329834,0.205627,-0.121643,0.00946,-0.061646
22.1,-0.051941,0.316711,0.218811,-0.120911,-0.004639,-0.041565
22.12,-0.050842,0.319275,0.224976,-0.10968,-0.009155,-0.014771
22.14,-0.03363,0.328613,0.227722,-0.084839,-0.010071,0.01709
22.16,-0.02063,0.354004,0.237305,-0.067871,-0.021301,0.051025
22.18,0.001831,0.385132,0.243164,-0.07428,-0.042175,0.088806
22.2,0.023376,0.421448,0.225525,-0.089294,-0.063904,0.123108
22.22,0.06665,0.44397,0.199402,-0.09491,-0.084595,0.142395
22.24,0.145325,0.441772,0.166809,-0.080933,-0.097656,0.144226
22.26,0.250793,0.430908,0.131531,-0.066833,-0.108948,0.131897
22.28,0.363586,0.418335,0.099365,-0.06958,-0.120728,0.112427
22.3,0.479126,0.408203,0.065002,-0.074585,-0.122925,0.092285
22.32,0.587891,0.417175,0.035583,-0.075684,-0.113525,0.071228
22.34,0.684753,0.432251,0.016541,-0.078979,-0.093384,0.051453
22.36,0.765869,0.460205,0.011292,-0.07373,-0.057678,0.030273
22.38,0.777344,0.474976,0.011963,-0.056763,-0.011414,0.00824
22.4,0.733643,0.461121,0.023438,-0.041748,0.030029,-0.00769
22.42,0.650818,0.427979,0.037354,-0.02417,0.064087,-0.011719
22.44,0.561218,0.400146,0.062134,-0.001404,0.089233,-0.006958
22.46,0.469788,0.372253,0.093018,0.013672,0.105347,-0.005554
22.48,0.372559,0.354187,0.124878,0.014526,0.115417,-0.010315
22.5,0.274414,0.347351,0.156982,0.003906,0.121155,-0.017456
22.52,0.189514,0.342407,0.181641,-0.013733,0.121887,-0.027832
22.54,0.122437,0.336914,0.197327,-0.031433,0.117493,-0.043091
22.56,0.074097,0.328674,0.210022,-0.042114,0.109314,-0.058411
22.58,0.031189,0.325867,0.226868,-0.045776,0.096619,-0.068909
22.6,-0.008118,0.324463,0.243042,-0.045654,0.08075,-0.072754
22.62,-0.043518,0.32196,0.251831,-0.041748,0.06189,-0.071228
22.64,-0.073303,0.319275,0.264709,-0.027466,0.041138,-0.067688
22.66,-0.100464,0.30835,0.271423,-0.005127,0.01947,-0.064148
22.68,-0.104004,0.311951,0.27832,0.0177,-0.002441,-0.059082
22.7,-0.075989,0.348267,0.277039,0.044922,-0.018738,-0.047424
22.72,-0.043884,0.376099,0.265442,0.067932,-0.0354,-0.031677
22.74,-0.013123,0.383667,0.250793,0.08313,-0.057983,-0.011169
22.76,0.043213,0.391296,0.238953,0.087158,-0.082336,0.013916
22.78,0.113098,0.398804,0.220825,0.079834,-0.100037,0.03418
22.8,0.190186,0.409119,0.189087,0.070068,-0.107239,0.044739
22.82,0.277344,0.417542,0.156433,0.052063,-0.112732,0.048462
22.84,0.38501,0.429993,0.122864,0.023499,-0.117737,0.046753
22.86,0.512146,0.455322,0.083313,-0.009949,-0.115845,0.03772
22.88,0.635071,0.482788,0.046753,-0.0354,-0.098633,0.021667
22.9,0.731262,0.499939,0.020203,-0.039551,-0.067444,-0.000244
22.92,0.786743,0.49939,0.009766,-0.033081,-0.031006,-0.022339
22.94,0.781128,0.483337,0.012573,-0.018127,0.010559,-0.038147
22.96,0.713013,0.449951,0.031982,0.015564,0.054199,-0.041748
22.98,0.621094,0.412659,0.054138,0.053833,0.089294,-0.029419
23.0,0.513855,0.397888,0.088989,0.065857,0.106995,-0.006165
23.02,0.385681,0.388794,0.119873,0.062561,0.117798,0.013245
23.04,0.276489,0.377319,0.148376,0.050537,0.122375,0.01947
23.06,0.182373,0.361572,0.170227,0.02655,0.11908,0.01416
23.08,0.110901,0.347595,0.187561,0.001648,0.112671,0.00116
23.1,0.06073,0.334229,0.198059,-0.014648,0.103821,-0.017151
23.12,0.015564,0.320068,0.211487,-0.023682,0.089539,-0.033508
23.14,-0.022034,0.309814,0.225708,-0.027649,0.070801,-0.041748
23.16,-0.060486,0.307922,0.233704,-0.027832,0.049866,-0.040955
23.18,-0.09967,0.310852,0.247437,-0.020386,0.028015,-0.035339
23.2,-0.123291,0.306335,0.261719,-0.004333,0.006165,-0.029846
23.22,-0.127441,0.302429,0.269775,0.010193,-0.016602,-0.022034
23.24,-0.108459,0.316406,0.271912,0.0177,-0.039734,-0.009277
23.26,-0.078857,0.346924,0.264648,0.02179,-0.061401,0.007324
23.28,-0.047974,0.378784,0.248352,0.023621,-0.083435,0.026062
23.3,0.002502,0.4151,0.234314,0.024109,-0.102539,0.044617
23.32,0.076294,0.436157,0.215027,0.023071,-0.117676,0.056641
23.34,0.152466,0.434814,0.18573,0.013184,-0.130066,0.062195
23.36,0.242188,0.433777,0.151062,-0.004333,-0.138672,0.061218
23.38,0.366333,0.441772,0.11554,-0.024597,-0.142212,0.055298
23.4,0.505798,0.45697,0.072632,-0.044312,-0.139771,0.046814
23.42,0.646362,0.486816,0.041443,-0.063171,-0.130188,0.038757
23.44,0.747131,0.52063,0.020874,-0.072449,-0.107117,0.028992
23.46,0.813049,0.538025,0.009338,-0.059082,-0.065674,0.019714
23.48,0.831238,0.539856,0.006775,-0.035278,-0.016602,0.011719
23.5,0.776428,0.507935,0.023621,-0.012878,0.027039,0.007751
23.52,0.678772,0.451843,0.047119,0.007202,0.062317,0.012512
23.54,0.580139,0.416199,0.075195,0.019592,0.090515,0.023071
23.56,0.462341,0.388855,0.1026,0.028381,0.113281,0.035034
23.58,0.354797,0.364136,0.131836,0.028381,0.128052,0.041992
23.6,0.261719,0.346741,0.152771,0.014832,0.133545,0.039246
23.62,0.182434,0.332642,0.170776,-0.003418,0.130371,0.028137
23.64,0.116455,0.317688,0.188965,-0.02002,0.119629,0.012146
23.66,0.060974,0.304443,0.210266,-0.035706,0.102661,-0.005493
23.68,0.013794,0.295288,0.22699,-0.052246,0.083069,-0.020508
23.7,-0.027649,0.290649,0.243042,-0.062744,0.065186,-0.030823
23.72,-0.049255,0.285706,0.255188,-0.062012,0.047119,-0.036865
23.74,-0.066467,0.276367,0.265747,-0.063416,0.021912,-0.039612
23.76,-0.076294,0.275879,0.27301,-0.063843,-0.005676,-0.036987
23.78,-0.069031,0.281616,0.274658,-0.057373,-0.031006,-0.030151
23.8,-0.051208,0.290771,0.264343,-0.043762,-0.052612,-0.019836
23.82,-0.010193,0.316345,0.261841,-0.019226,-0.068848,-0.00415
23.84,0.039368,0.353821,0.259888,0.003357,-0.085144,0.013306
23.86,0.100647,0.388428,0.249695,0.005066,-0.105042,0.028687
23.88,0.167297,0.415344,0.229248,-0.010925,-0.123596,0.039978
23.9,0.251465,0.431702,0.200256,-0.035461,-0.133728,0.047363
23.92,0.375977,0.43988,0.173645,-0.061096,-0.134094,0.048889
23.94,0.500122,0.449951,0.143066,-0.083862,-0.121094,0.042725
23.96,0.609802,0.47113,0.110901,-0.100769,-0.097717,0.032776
23.98,0.701538,0.485962,0.086426,-0.104126,-0.067871,0.020386
24.0,0.753174,0.490845,0.070557,-0.093323,-0.031799,0.010254
24.02,0.753235,0.490845,0.067078,-0.07312,0.004944,0.00592
24.04,0.69342,0.475281,0.07843,-0.036377,0.039307,0.01001
24.06,0.612183,0.432129,0.097717,0.007568,0.065552,0.020081
24.08,0.522583,0.398621,0.131226,0.036743,0.082458,0.034119
24.1,0.418945,0.37677,0.157043,0.050232,0.09613,0.047119
24.12,0.305542,0.356567,0.184937,0.049805,0.103821,0.051331
24.14,0.210938,0.337341,0.21051,0.041199,0.108154,0.044434
24.16,0.139526,0.31366,0.224731,0.02771,0.108826,0.027527
24.18,0.084534,0.288818,0.235657,0.008667,0.100586,0.005615
24.2,0.044739,0.270996,0.243591,-0.011353,0.08374,-0.012512
24.22,0.004089,0.263916,0.253235,-0.028381,0.059692,-0.022095
24.24,-0.02887,0.258972,0.267212,-0.035034,0.03363,-0.024658
24.26,-0.048523,0.261719,0.276917,-0.031555,0.008972,-0.025085
24.28,-0.050537,0.265442,0.289429,-0.020142,-0.012024,-0.026123
24.3,-0.038452,0.26947,0.287781,-0.003235,-0.029602,-0.026306
24.32,-0.020996,0.286926,0.283569,0.009705,-0.048584,-0.020752
24.34,0.0177,0.314758,0.280762,0.027588,-0.066528,-0.009949
24.36,0.080566,0.339478,0.268799,0.037231,-0.08667,-6.1e-05
24.38,0.15918,0.364685,0.250427,0.030273,-0.105835,0.009644
24.4,0.243774,0.385803,0.224243,0.013306,-0.117432,0.017334
24.42,0.341553,0.408264,0.198181,-0.010193,-0.1203,0.019287
24.44,0.450745,0.429871,0.171814,-0.036987,-0.117004,0.013184
24.46,0.559753,0.449768,0.14093,-0.060669,-0.103699,0.004761
24.48,0.666321,0.466675,0.110046,-0.068298,-0.078979,-0.000122
24.5,0.742554,0.477661,0.094116,-0.064209,-0.048584,-0.00238
24.52,0.751953,0.487061,0.08728,-0.050537,-0.014587,-0.000366
24.54,0.714722,0.486389,0.097473,-0.023987,0.022522,0.0047
24.56,0.64386,0.455139,0.108887,0.008423,0.056213,0.009949
24.58,0.555298,0.419128,0.130798,0.03363,0.082153,0.017761
24.6,0.462341,0.395813,0.160461,0.049377,0.10376,0.026062
24.62,0.356506,0.374023,0.180908,0.051758,0.11792,0.028442
24.64,0.252747,0.35083,0.202576,0.043091,0.123657,0.023376
24.66,0.166565,0.329529,0.216614,0.030151,0.123169,0.011169
24.68,0.103577,0.306213,0.228882,0.017639,0.117126,-0.005371
24.7,0.060669,0.286316,0.238281,0.008179,0.104675,-0.020752
24.72,0.020508,0.275574,0.251343,-0.002808,0.084229,-0.032227
24.74,-0.009521,0.267273,0.263855,-0.010437,0.060486,-0.03894
24.76,-0.030518,0.258972,0.271851,-0.01239,0.037109,-0.043518
24.78,-0.044128,0.25531,0.281433,-0.008057,0.015442,-0.045959
24.8,-0.042114,0.25531,0.287292,0.003357,-0.003662,-0.044861
24.82,-0.036255,0.26239,0.28894,0.013916,-0.024048,-0.041382
24.84,-0.016602,0.277161,0.289062,0.020813,-0.045837,-0.035217
24.86,0.01825,0.299988,0.289673,0.027405,-0.064819,-0.023804
24.88,0.0578,0.323303,0.280273,0.030396,-0.081116,-0.008545
24.9,0.10437,0.347412,0.2677,0.028992,-0.095093,0.009216
24.92,0.169556,0.372314,0.251282,0.024353,-0.105957,0.028137
24.94,0.243896,0.393982,0.228516,0.009094,-0.116333,0.04364
24.96,0.31781,0.416199,0.198792,-0.01355,-0.12262,0.050293
24.98,0.415771,0.432983,0.174988,-0.03717,-0.123291,0.047241
25.0,0.538574,0.444824,0.149841,-0.062378,-0.116089,0.037109
25.02,0.6474,0.44873,0.12207,-0.086121,-0.098206,0.023254
25.04,0.726501,0.462524,0.098511,-0.098572,-0.070251,0.009949
25.06,0.763733,0.478638,0.094727,-0.085205,-0.030701,-6.1e-05
25.08,0.744751,0.474182,0.095276,-0.047241,0.014465,-0.005676
25.1,0.671509,0.446167,0.10675,-0.003601,0.052124,-0.002747
25.12,0.577148,0.405334,0.123779,0.028198,0.075073,0.007996
25.14,0.486572,0.388,0.152222,0.050415,0.091125,0.021973
25.16,0.389954,0.367249,0.176819,0.06543,0.105103,0.029419
25.18,0.296997,0.341431,0.201538,0.060974,0.11322,0.027283
25.2,0.219482,0.32605,0.215637,0.039856,0.114807,0.018066
25.22,0.15033,0.313293,0.227722,0.016846,0.11145,0.003906
25.24,0.099365,0.300659,0.237122,0.001587,0.10498,-0.013123
25.26,0.059082,0.289246,0.243835,-0.006653,0.093689,-0.031494
25.28,0.032715,0.27655,0.255798,-0.007263,0.078979,-0.046204
25.3,0.016357,0.262756,0.261902,-0.002625,0.061523,-0.054871
25.32,-0.000793,0.253174,0.266174,0.000366,0.038574,-0.056641
25.34,-0.014526,0.254517,0.274597,0.003601,0.013672,-0.052612
25.36,-0.021973,0.269104,0.281616,0.011902,-0.008484,-0.04425
25.38,-0.018738,0.292297,0.28656,0.021973,-0.030457,-0.033691
25.4,0.003845,0.31781,0.292053,0.031189,-0.050842,-0.022949
25.42,0.035461,0.342773,0.293152,0.037598,-0.069397,-0.01123
25.44,0.071838,0.360718,0.286804,0.036377,-0.088623,0.002686
25.46,0.124451,0.377686,0.270691,0.027954,-0.103333,0.018188
25.48,0.203003,0.389771,0.240051,0.017883,-0.111084,0.030823
25.5,0.283325,0.395447,0.207947,0.002502,-0.115601,0.036926
25.52,0.37207,0.409851,0.180481,-0.019287,-0.118164,0.037048
25.54,0.477295,0.437378,0.1604,-0.0401,-0.114502,0.034302
25.56,0.582581,0.463196,0.139038,-0.051697,-0.098755,0.025818
25.58,0.667175,0.482117,0.122131,-0.05658,-0.073486,0.013428
25.6,0.718994,0.487183,0.112244,-0.049438,-0.040894,0.00116
25.62,0.726746,0.47522,0.113159,-0.032471,-0.004395,-0.007996
25.64,0.682678,0.445496,0.122681,-0.00885,0.031921,-0.008484
25.66,0.605286,0.40448,0.129639,0.013977,0.061951,0.000122
25.68,0.515991,0.38623,0.150879,0.034424,0.085999,0.014343
25.7,0.433411,0.366516,0.170776,0.056519,0.107422,0.026062
25.72,0.341736,0.342896,0.191895,0.060181,0.119751,0.028687
25.74,0.250671,0.330444,0.210876,0.04541,0.12207,0.024719
25.76,0.172546,0.31427,0.227661,0.028137,0.119263,0.015991
25.78,0.109375,0.293152,0.236633,0.007568,0.111023,0.002136
25.8,0.058228,0.280334,0.248291,-0.012512,0.098267,-0.013245
25.82,0.026489,0.271362,0.258423,-0.023315,0.083557,-0.026611
25.84,-0.002441,0.264038,0.266968,-0.027283,0.065369,-0.036804
25.86,-0.021667,0.256592,0.272522,-0.025757,0.044128,-0.042847
25.88,-0.033875,0.25177,0.275513,-0.021118,0.019958,-0.044922
25.9,-0.038513,0.257935,0.281006,-0.012146,-0.004272,-0.041138
25.92,-0.032227,0.27655,0.284241,0.001587,-0.027344,-0.031189
25.94,-0.015015,0.298523,0.288574,0.014954,-0.049866,-0.018799
25.96,0.02179,0.324097,0.290527,0.027344,-0.069214,-0.005371
25.98,0.055969,0.354492,0.286804,0.03418,-0.088135,0.009277
26.0,0.102356,0.37262,0.279724,0.033691,-0.102844,0.025513
26.02,0.169434,0.385742,0.252808,0.02179,-0.11261,0.037781
26.04,0.242676,0.398376,0.224915,-0.001038,-0.120483,0.039978
26.06,0.335144,0.417725,0.201294,-0.023376,-0.122803,0.038452
26.08,0.444397,0.437073,0.176514,-0.041565,-0.119324,0.035217
26.1,0.551697,0.453918,0.151978,-0.058411,-0.108887,0.030029
26.12,0.644409,0.469666,0.129333,-0.071289,-0.09137,0.022522
26.14,0.720825,0.479858,0.115784,-0.074585,-0.065674,0.012817
26.16,0.766357,0.484009,0.114563,-0.06427,-0.029297,0.003601
26.18,0.747864,0.475281,0.126465,-0.037781,0.014343,-0.00061
26.2,0.667419,0.435242,0.137329,-0.005615,0.052795,0.004822
26.22,0.570801,0.394958,0.152893,0.013733,0.079163,0.018494
26.24,0.47229,0.378418,0.172852,0.029175,0.098877,0.036011
26.26,0.367188,0.360107,0.191772,0.040222,0.112244,0.046021
26.28,0.269714,0.333679,0.216797,0.037231,0.119324,0.043701
26.3,0.191406,0.315857,0.230164,0.021301,0.121399,0.031372
26.32,0.125916,0.301208,0.242798,0.000854,0.116272,0.014099
26.34,0.074768,0.284912,0.252991,-0.017944,0.105957,-0.004089
26.36,0.034058,0.275208,0.261414,-0.031799,0.092834,-0.021179
26.38,0.007202,0.263611,0.266235,-0.035461,0.078186,-0.034546
26.4,-0.011108,0.247864,0.272217,-0.031738,0.0578,-0.041382
26.42,-0.024048,0.237915,0.279785,-0.02655,0.031738,-0.039917
26.44,-0.036072,0.240967,0.287109,-0.019714,0.005005,-0.03302
26.46,-0.0401,0.25647,0.297363,-0.006958,-0.019287,-0.02124
26.48,-0.037964,0.27533,0.304565,0.009949,-0.041016,-0.005798
26.5,-0.012085,0.294189,0.305664,0.023132,-0.061401,0.009399
26.52,0.026184,0.319031,0.305725,0.024231,-0.083069,0.019714
26.54,0.069824,0.336975,0.297729,0.018433,-0.100403,0.028381
26.56,0.136292,0.353699,0.281555,0.007324,-0.116272,0.039185
26.58,0.209412,0.370056,0.263733,-0.011658,-0.130798,0.048157
26.6,0.276733,0.377625,0.235046,-0.03418,-0.138733,0.049744
26.62,0.369019,0.382446,0.205017,-0.057251,-0.141235,0.044983
26.64,0.493835,0.392456,0.179382,-0.081116,-0.138428,0.037781
26.66,0.618042,0.408936,0.16217,-0.1073,-0.128418,0.029724
26.68,0.703918,0.43042,0.14978,-0.124146,-0.104736,0.021545
26.7,0.745789,0.447876,0.142639,-0.117004,-0.06543,0.012573
26.72,0.745605,0.444641,0.14447,-0.08374,-0.016052,0.00354
26.74,0.690735,0.412659,0.147888,-0.036133,0.030823,-0.000122
26.76,0.607544,0.371338,0.157959,0.005188,0.06012,0.006348
26.78,0.528992,0.347412,0.174866,0.030945,0.075439,0.02002
26.8,0.44104,0.332764,0.192017,0.047729,0.085388,0.032288
26.82,0.341125,0.317261,0.217407,0.053833,0.089844,0.036621
26.84,0.251465,0.300659,0.242371,0.044739,0.091553,0.030762
26.86,0.183716,0.285217,0.25885,0.022583,0.092163,0.016174
26.88,0.131409,0.269714,0.263672,-0.004578,0.089111,-0.001709
26.9,0.088135,0.259338,0.265991,-0.028076,0.080505,-0.018616
26.92,0.049622,0.253357,0.269165,-0.039551,0.069214,-0.029968
26.94,0.02533,0.247864,0.277222,-0.034302,0.055115,-0.033752
26.96,0.007751,0.242126,0.281433,-0.023499,0.035461,-0.033569
26.98,-0.008545,0.243958,0.289001,-0.010132,0.011841,-0.027405
27.0,-0.011414,0.252747,0.298218,0.007446,-0.013123,-0.0177
27.02,-0.002319,0.265503,0.30719,0.022278,-0.037659,-0.007263
27.04,0.011719,0.29187,0.316101,0.030457,-0.060608,0.003174
27.06,0.036072,0.316467,0.319458,0.035461,-0.079468,0.011963
27.08,0.071777,0.328125,0.31604,0.035645,-0.094299,0.016846
27.1,0.11322,0.332581,0.302551,0.024719,-0.110046,0.021362
27.12,0.172913,0.337402,0.279663,0.001892,-0.126526,0.028076
27.14,0.249634,0.346252,0.245911,-0.026733,-0.139282,0.033142
27.16,0.350708,0.361023,0.213135,-0.052917,-0.145081,0.032593
27.18,0.46875,0.383545,0.190063,-0.076965,-0.145264,0.028381
27.2,0.575439,0.409363,0.172852,-0.090942,-0.135986,0.02301
27.22,0.674988,0.421509,0.156311,-0.096313,-0.113647,0.017456
27.24,0.752014,0.431396,0.138672,-0.092712,-0.080383,0.011658
27.26,0.783081,0.43219,0.131409,-0.075195,-0.040222,0.005127
27.28,0.782104,0.416565,0.13678,-0.046753,0.000732,0.001587
27.3,0.723816,0.383606,0.145691,-0.017761,0.035278,0.005676
27.32,0.634033,0.352112,0.157898,0.00177,0.058594,0.017639
27.34,0.547791,0.342896,0.177917,0.019043,0.074768,0.035095
27.36,0.450989,0.334167,0.196777,0.037476,0.087769,0.047791
27.38,0.346802,0.316284,0.222473,0.051636,0.097961,0.051392
27.4,0.261719,0.294434,0.241699,0.05603,0.105713,0.044861
27.42,0.191467,0.273499,0.256165,0.043823,0.107361,0.030029
27.44,0.135742,0.256348,0.263733,0.021973,0.102661,0.012207
27.46,0.097595,0.241699,0.269653,0.002563,0.094482,-0.003784
27.48,0.065979,0.235657,0.276001,-0.010803,0.083008,-0.016663
27.5,0.039368,0.229248,0.285217,-0.01532,0.068176,-0.026062
27.52,0.018921,0.225342,0.291748,-0.013184,0.050598,-0.032471
27.54,0.006775,0.222351,0.30011,-0.006348,0.03064,-0.035645
27.56,0.001404,0.21875,0.304932,0.002625,0.008362,-0.034241
27.58,-0.002991,0.223206,0.307312,0.008789,-0.016724,-0.027222
27.6,0.00415,0.244019,0.313599,0.018188,-0.041565,-0.014648
27.62,0.033508,0.267395,0.31604,0.030579,-0.063904,-0.001404
27.64,0.074402,0.287415,0.31488,0.034851,-0.085449,0.009216
27.66,0.126465,0.306641,0.303467,0.025757,-0.107971,0.018555
27.68,0.198486,0.322937,0.283813,0.004639,-0.128845,0.02771
27.7,0.283752,0.338196,0.252014,-0.026855,-0.142517,0.031738
27.72,0.388428,0.362366,0.227295,-0.063354,-0.148132,0.02655
27.74,0.510742,0.385071,0.202271,-0.095093,-0.144409,0.018555
27.76,0.626099,0.406372,0.182251,-0.121094,-0.13324,0.011414
27.78,0.722046,0.429749,0.165344,-0.134888,-0.108887,0.004333
27.8,0.782532,0.440796,0.158386,-0.125916,-0.071594,-0.001282
27.82,0.801147,0.434082,0.153687,-0.091309,-0.023438,-0.00116
27.84,0.764099,0.409302,0.154358,-0.044739,0.02417,0.005371
27.86,0.682373,0.367615,0.156128,-0.003296,0.05719,0.016907
27.88,0.585754,0.338562,0.173401,0.024353,0.073914,0.032776
27.9,0.494812,0.32312,0.193665,0.047974,0.086609,0.048706
27.92,0.39679,0.304932,0.218384,0.062073,0.096863,0.053833
27.94,0.299744,0.27887,0.24408,0.057007,0.101929,0.04834
27.96,0.222839,0.261169,0.26123,0.036438,0.107178,0.03479
27.98,0.160339,0.253662,0.269775,0.014709,0.111328,0.016846
28.0,0.110291,0.240601,0.277527,-0.000183,0.108093,-0.001221
28.02,0.065735,0.225403,0.285522,-0.011841,0.096924,-0.01709
28.04,0.037781,0.21228,0.293274,-0.017273,0.081787,-0.028198
28.06,0.016968,0.20752,0.298462,-0.019775,0.061829,-0.036987
28.08,-0.000793,0.201172,0.306946,-0.018066,0.036804,-0.041565
28.1,-0.007568,0.202515,0.314087,-0.007874,0.011902,-0.037781
28.12,-0.005371,0.217224,0.326355,0.003113,-0.013611,-0.028625
28.14,0.014771,0.245361,0.337097,0.01239,-0.037903,-0.017395
28.16,0.045044,0.272461,0.339966,0.026123,-0.056091,-0.006409
28.18,0.081055,0.28479,0.336609,0.04071,-0.071594,0.003845
28.2,0.112061,0.285828,0.33075,0.042175,-0.090576,0.015625
28.22,0.151917,0.291748,0.313293,0.03125,-0.109131,0.028198
28.24,0.211975,0.3078,0.287109,0.007751,-0.12677,0.037231
28.26,0.29303,0.327759,0.262329,-0.019592,-0.140015,0.042419
28.28,0.396118,0.342407,0.236938,-0.047913,-0.144226,0.039673
28.3,0.518677,0.353821,0.211304,-0.077332,-0.138428,0.030762
28.32,0.631836,0.367554,0.184509,-0.104187,-0.125854,0.022522
28.34,0.726929,0.375488,0.163757,-0.122803,-0.102844,0.018066
28.36,0.791016,0.384766,0.15332,-0.125854,-0.067566,0.016663
28.38,0.800598,0.388306,0.15802,-0.108887,-0.025818,0.017578
28.4,0.754089,0.371277,0.163269,-0.074402,0.014099,0.023193
28.42,0.668091,0.329895,0.164429,-0.033142,0.046448,0.033752
28.44,0.588074,0.294983,0.177856,0.004395,0.065552,0.052673
28.46,0.504272,0.284302,0.204834,0.024109,0.070312,0.072693
28.48,0.398987,0.274109,0.233032,0.029236,0.072937,0.082275
28.5,0.306641,0.256836,0.257019,0.024414,0.077576,0.078857
28.52,0.227173,0.240417,0.269653,0.010681,0.081787,0.066528
28.54,0.167236,0.215454,0.277466,-0.003601,0.082458,0.051392
28.56,0.126343,0.190613,0.286987,-0.017517,0.077209,0.039673
28.58,0.100098,0.18927,0.283203,-0.031189,0.068237,0.030029
28.6,0.078552,0.197144,0.281006,-0.039368,0.052429,0.015381
28.62,0.05365,0.214722,0.278809,-0.047607,0.022461,0.000244
28.64,0.039795,0.200317,0.298767,-0.064575,-0.021729,-0.012085
28.66,0.037537,0.204041,0.312439,-0.08252,-0.067078,-0.023315
28.68,0.053345,0.192444,0.336182,-0.09314,-0.101257,-0.035278
28.7,0.069153,0.202759,0.355896,-0.076782,-0.116211,-0.033447
28.72,0.10498,0.22229,0.365234,-0.052795,-0.121033,-0.024414
28.74,0.140259,0.237915,0.353516,-0.031067,-0.121826,-0.016907
28.76,0.192627,0.248596,0.331909,-0.005676,-0.12439,-0.010315
28.78,0.263794,0.269653,0.305725,0.008484,-0.131226,-0.003418
28.8,0.352722,0.279724,0.277039,0.004456,-0.139221,0.000793
28.82,0.467102,0.29303,0.244202,-0.021423,-0.14325,0.002869
28.84,0.589478,0.31012,0.213867,-0.064148,-0.138733,0.00177
28.86,0.698242,0.314087,0.185913,-0.101379,-0.119812,-0.001099
28.88,0.769043,0.311157,0.157898,-0.121643,-0.082153,0.000427
28.9,0.796875,0.308289,0.144714,-0.116394,-0.036621,0.008606
28.92,0.789795,0.307617,0.132935,-0.096313,0.00293,0.021362
28.94,0.753967,0.307434,0.144775,-0.067627,0.031982,0.036621
28.96,0.679993,0.292114,0.165466,-0.031494,0.05072,0.053223
28.98,0.594849,0.27301,0.191162,-0.003113,0.058594,0.069031
29.0,0.512817,0.262268,0.218872,0.017273,0.065735,0.080139
29.02,0.415527,0.24762,0.244629,0.026367,0.076172,0.078308
29.04,0.310242,0.225098,0.268921,0.024963,0.088257,0.065857
29.06,0.231201,0.200928,0.286682,0.015991,0.100647,0.049927
29.08,0.177551,0.179504,0.294861,-0.001099,0.110291,0.033142
29.1,0.139954,0.174561,0.304993,-0.02124,0.112732,0.01532
29.12,0.101868,0.173767,0.316833,-0.035828,0.104858,-0.000854
29.14,0.066284,0.175598,0.333252,-0.039673,0.088745,-0.011902
29.16,0.048584,0.170044,0.340759,-0.028076,0.069641,-0.017761
29.18,0.041138,0.160034,0.342407,-0.016174,0.043518,-0.024963
29.2,0.044312,0.157898,0.355408,-0.00885,0.012695,-0.030823
29.22,0.067017,0.167419,0.355469,-0.002502,-0.013672,-0.032043
29.24,0.107544,0.184082,0.349121,0.003235,-0.039734,-0.02887
29.26,0.15802,0.204834,0.34259,0.007874,-0.069458,-0.022888
29.28,0.211853,0.214722,0.331482,0.007019,-0.096497,-0.015808
29.3,0.285217,0.231934,0.315613,-0.005859,-0.11261,-0.008667
29.32,0.382141,0.261047,0.296692,-0.027344,-0.119446,-0.006226
29.34,0.487671,0.285889,0.275208,-0.049377,-0.118225,-0.008545
29.36,0.585144,0.297791,0.252747,-0.069153,-0.108459,-0.013245
29.38,0.67511,0.305664,0.232788,-0.085327,-0.086609,-0.018677
29.4,0.746704,0.310852,0.209473,-0.091492,-0.05072,-0.023132
29.42,0.779114,0.30896,0.190491,-0.075989,-0.007202,-0.023071
29.44,0.758545,0.29303,0.177307,-0.033691,0.034607,-0.014465
29.46,0.679993,0.260559,0.173096,0.015381,0.060547,0.001221
29.48,0.578979,0.233215,0.196228,0.047974,0.061646,0.021423
29.5,0.484009,0.231201,0.228943,0.069336,0.059204,0.042847
29.52,0.38562,0.220825,0.256348,0.084595,0.062927,0.055359
29.54,0.29303,0.198853,0.288452,0.08783,0.069763,0.057739
29.56,0.230347,0.180847,0.308838,0.07019,0.07843,0.051575
29.58,0.181763,0.167175,0.318604,0.035156,0.087097,0.038269
29.6,0.139221,0.158569,0.321716,0.001038,0.090576,0.022522
29.62,0.10376,0.147705,0.320923,-0.021362,0.087158,0.007446
29.64,0.071533,0.136597,0.32135,-0.031067,0.07489,-0.003174
29.66,0.044189,0.13562,0.331177,-0.032654,0.050842,-0.007568
29.68,0.029968,0.142151,0.350891,-0.024719,0.023926,-0.008545
29.7,0.033325,0.142212,0.36084,-0.013367,-0.001587,-0.009216
29.72,0.047241,0.147339,0.362305,-0.005371,-0.026306,-0.008667
29.74,0.061951,0.160278,0.36731,0.003052,-0.053711,-0.006531
29.76,0.082275,0.167847,0.368042,0.013428,-0.080688,-0.000793
29.78,0.115234,0.185425,0.361267,0.021606,-0.10614,0.008362
29.8,0.156433,0.207153,0.357117,0.02417,-0.133301,0.017517
29.82,0.214294,0.230225,0.340027,0.012939,-0.157532,0.026123
29.84,0.28894,0.261963,0.321167,-0.012695,-0.177795,0.031677
29.86,0.370361,0.279724,0.303162,-0.046509,-0.197021,0.031189
29.88,0.455627,0.293457,0.280945,-0.081116,-0.200989,0.031555
29.9,0.573364,0.304016,0.227112,-0.122498,-0.190063,0.028748
29.92,0.713074,0.292358,0.173035,-0.159424,-0.173462,0.017151
29.94,0.827759,0.283081,0.12915,-0.166138,-0.144348,0.009216
29.96,0.885986,0.277466,0.108704,-0.148987,-0.104248,0.003662
29.98,0.891907,0.275085,0.106445,-0.110229,-0.055786,0.00415
30.0,0.890686,0.263855,0.106995,-0.06012,-0.011902,0.012329
30.02,0.847412,0.237061,0.114319,-0.024109,0.024597,0.025635
30.04,0.750671,0.224609,0.125488,0.002441,0.056335,0.043945
30.06,0.640442,0.218567,0.152832,0.041931,0.083557,0.064697
30.08,0.522278,0.196655,0.197327,0.074829,0.098572,0.075317
30.1,0.400452,0.170471,0.240723,0.081604,0.109741,0.078308
30.12,0.304443,0.153625,0.27063,0.067444,0.121765,0.076782
30.14,0.237,0.144653,0.292847,0.042053,0.130188,0.069397
30.16,0.190552,0.132935,0.310364,0.012756,0.134338,0.057678
30.18,0.158447,0.120239,0.32312,-0.017578,0.13916,0.043152
30.2,0.141052,0.107117,0.326965,-0.046631,0.143311,0.029846
30.22,0.126526,0.088196,0.325317,-0.0755,0.138977,0.026611
30.24,0.103577,0.091797,0.330933,-0.117188,0.115601,0.033752
30.26,0.090027,0.119019,0.333984,-0.174316,0.075928,0.038208
30.28,0.073608,0.114746,0.349792,-0.242004,0.021362,0.030457
30.3,0.047058,0.100769,0.378479,-0.280029,-0.035156,0.028259
30.32,0.051331,0.067688,0.424011,-0.265869,-0.080933,0.038574
30.34,0.068604,0.054565,0.445984,-0.205261,-0.101685,0.057007
30.36,0.087036,0.085144,0.455261,-0.135986,-0.10553,0.07373
30.38,0.138489,0.113892,0.428223,-0.08728,-0.106201,0.076538
30.4,0.195862,0.1297,0.393738,-0.053284,-0.107849,0.059814
30.42,0.238708,0.125732,0.387695,-0.026123,-0.114929,0.037292
30.44,0.286377,0.108276,0.366333,-0.017517,-0.130615,0.02948
30.46,0.336121,0.104797,0.327942,-0.03241,-0.142029,0.03302
30.48,0.398987,0.103088,0.29425,-0.058472,-0.138367,0.031921
30.5,0.468262,0.099426,0.258423,-0.093384,-0.126892,0.023132
30.52,0.558044,0.105225,0.22345,-0.13208,-0.119873,0.017273
30.54,0.640198,0.122192,0.205933,-0.160034,-0.112915,0.0177
30.56,0.720093,0.126221,0.19165,-0.167725,-0.099792,0.022949
30.58,0.788635,0.113953,0.181458,-0.169617,-0.078918,0.032104
30.6,0.820435,0.091675,0.164856,-0.169312,-0.051575,0.047058
30.62,0.813965,0.072571,0.140381,-0.160706,-0.023682,0.066895
30.64,0.775391,0.061401,0.129517,-0.145691,-0.005066,0.086548
30.66,0.702637,0.064575,0.139648,-0.113586,0.005432,0.099609
30.68,0.631714,0.04657,0.170044,-0.06366,0.008301,0.103271
30.7,0.554932,0.0401,0.19989,-0.025085,0.004028,0.104797
30.72,0.478943,0.03772,0.238586,0.003601,0.00354,0.10199
30.74,0.415771,0.03125,0.267029,0.017761,0.009033,0.093323
30.76,0.364319,0.028503,0.287048,0.014771,0.016663,0.080383
30.78,0.317017,0.019714,0.300232,0.007141,0.025208,0.066162
30.8,0.279236,0.008545,0.314026,-0.002869,0.036499,0.055725
30.82,0.245361,0.000854,0.325806,-0.019043,0.047546,0.0495
30.84,0.229248,0.001892,0.336731,-0.035034,0.053467,0.046875
30.86,0.224243,0.002686,0.34668,-0.052246,0.050415,0.042114
30.88,0.22406,0.000732,0.347351,-0.066589,0.042358,0.036987
30.9,0.233154,0.01178,0.348206,-0.072327,0.030396,0.03064
30.92,0.249146,0.022644,0.362305,-0.062622,0.017212,0.021606
30.94,0.252075,0.01532,0.367065,-0.039062,0.007812,0.016479
30.96,0.251038,0.008606,0.358826,-0.020813,-0.003662,0.014954
30.98,0.250793,0.004089,0.348511,-0.007385,-0.019043,0.013
31.0,0.241943,0.018616,0.355713,0.000854,-0.039062,0.010132
31.02,0.290771,-0.005981,0.369995,-0.004028,-0.055542,0.007202
31.04,0.319275,0.002686,0.336121,-0.009033,-0.055115,0.01123
31.06,0.344177,0.017029,0.3479,-0.013062,-0.049255,0.010803
31.08,0.375427,0.019409,0.346741,-0.008545,-0.037964,0.003357
31.1,0.428101,0.006592,0.322998,-0.017639,-0.030945,-0.002197
31.12,0.493042,-0.000732,0.291199,-0.04364,-0.028809,0.000305
31.14,0.559021,0.008118,0.266968,-0.068115,-0.027893,0.011169
31.16,0.6203,0.014771,0.244568,-0.089355,-0.031921,0.024353
31.18,0.678955,0.007446,0.240112,-0.100708,-0.032043,0.038757
31.2,0.753601,-0.005066,0.216675,-0.107239,-0.015625,0.051331
31.22,0.816833,-0.00885,0.193298,-0.114624,0.010315,0.062134
31.24,0.833862,-0.02124,0.171875,-0.115234,0.030762,0.074463
31.26,0.810791,-0.033325,0.171265,-0.106873,0.041016,0.091858
31.28,0.773193,-0.032471,0.183411,-0.098145,0.04364,0.109802
31.3,0.734192,-0.041992,0.194336,-0.082214,0.057129,0.125122
31.32,0.683899,-0.050659,0.227173,-0.066589,0.084229,0.137268
31.34,0.636414,-0.043945,0.244751,-0.07489,0.108948,0.15448
31.36,0.588623,-0.056946,0.242859,-0.079834,0.131042,0.176086
31.38,0.502014,-0.060364,0.257812,-0.075806,0.148621,0.186768
31.4,0.41217,-0.051331,0.275818,-0.082642,0.155151,0.193298
31.42,0.354492,-0.069702,0.287659,-0.102234,0.166992,0.20697
31.44,0.270264,-0.078491,0.29657,-0.121765,0.180908,0.216492
31.46,0.174744,-0.086975,0.312866,-0.134155,0.177979,0.214478
31.48,0.085999,-0.075684,0.354004,-0.150574,0.148499,0.197754
31.5,0.010925,-0.097717,0.378784,-0.16394,0.116577,0.180908
31.52,-0.03186,-0.106262,0.402466,-0.160278,0.097046,0.156433
31.54,-0.02948,-0.137756,0.404053,-0.148987,0.09668,0.134888
31.56,-0.040344,-0.1203,0.401733,-0.144775,0.103027,0.11792
31.58,-0.059692,-0.147217,0.393677,-0.143494,0.099854,0.094666
31.6,-0.067871,-0.156189,0.386108,-0.13562,0.08374,0.0755
31.62,-0.040955,-0.189026,0.38208,-0.118958,0.052612,0.059143
31.64,-0.014709,-0.235535,0.376587,-0.098938,0.003296,0.054504
31.66,-0.003113,-0.238464,0.393005,-0.096985,-0.057373,0.069397
31.68,0.029907,-0.220337,0.384766,-0.106506,-0.100464,0.083496
31.7,0.090942,-0.192322,0.370605,-0.117554,-0.122009,0.078857
31.72,0.192383,-0.186035,0.348816,-0.116699,-0.120605,0.054016
31.74,0.317688,-0.198364,0.317444,-0.105591,-0.098328,0.023499
31.76,0.49353,-0.209229,0.277039,-0.093201,-0.06427,-0.003723
31.78,0.669067,-0.229248,0.219116,-0.066772,-0.033752,-0.031982
31.8,0.814636,-0.286865,0.17334,-0.03656,-0.014343,-0.046814
31.82,0.913513,-0.306946,0.142395,-0.00885,-0.007263,-0.036316
31.84,0.913086,-0.30719,0.134094,0.013245,-0.017273,-0.019897
31.86,0.848511,-0.29895,0.140076,0.040161,-0.034729,-0.003662
31.88,0.765198,-0.287964,0.155273,0.067444,-0.052734,0.013916
31.9,0.641296,-0.276855,0.196533,0.081604,-0.060913,0.036682
31.92,0.495056,-0.255066,0.240295,0.083191,-0.044678,0.065308
31.94,0.349426,-0.232544,0.290588,0.065735,-0.017212,0.084351
31.96,0.211975,-0.214417,0.338013,0.038269,0.004639,0.087646
31.98,0.094238,-0.196777,0.373535,0.00885,0.026123,0.080872
32.0,0.000244,-0.184937,0.392944,-0.016052,0.049072,0.067566
32.02,-0.059509,-0.177734,0.390381,-0.030762,0.068176,0.046692
32.04,-0.110413,-0.17218,0.376831,-0.037354,0.074219,0.019714
32.06,-0.12854,-0.164612,0.358093,-0.033691,0.065735,-0.010742
32.08,-0.105957,-0.160522,0.342651,-0.019531,0.050842,-0.040344
32.1,-0.06842,-0.165405,0.326782,-0.001526,0.029968,-0.065002
32.12,-0.017151,-0.168091,0.317993,0.011108,-0.00177,-0.081055
32.14,0.037903,-0.169861,0.322937,0.018005,-0.043152,-0.090881
32.16,0.099121,-0.170715,0.340881,0.016968,-0.090271,-0.098938
32.18,0.177368,-0.180481,0.372009,0.011108,-0.136719,-0.106201
32.2,0.265015,-0.192444,0.391541,-0.000488,-0.167358,-0.110718
32.22,0.372131,-0.206665,0.386169,-0.017456,-0.172424,-0.112183
32.24,0.509766,-0.207458,0.333923,-0.034729,-0.153809,-0.111389
32.26,0.670837,-0.237671,0.280701,-0.046082,-0.115967,-0.110352
32.28,0.834961,-0.254883,0.208557,-0.057068,-0.060608,-0.098267
32.3,0.956909,-0.264099,0.152405,-0.059631,-0.007751,-0.07666
32.32,0.993164,-0.281555,0.108826,-0.046875,0.023804,-0.051208
32.34,0.977417,-0.288818,0.09259,-0.034546,0.026001,-0.016785
32.36,0.910217,-0.288696,0.107178,-0.027649,0.011353,0.02533
32.38,0.784973,-0.265686,0.142029,-0.022217,-0.002197,0.064636
32.4,0.645386,-0.241638,0.193298,-0.006653,-0.003296,0.093872
32.42,0.512512,-0.21991,0.23468,0.015686,0.005371,0.108093
32.44,0.382385,-0.212219,0.266357,0.020203,0.02063,0.108337
32.46,0.28125,-0.201843,0.291321,0.008179,0.041626,0.103943
32.48,0.213013,-0.186829,0.292725,-0.00592,0.064636,0.09613
32.5,0.153015,-0.176392,0.289795,-0.016052,0.086182,0.084045
32.52,0.100342,-0.169983,0.289551,-0.017151,0.098999,0.070496
32.54,0.067444,-0.170898,0.289978,-0.009216,0.098206,0.053467
32.56,0.02948,-0.175842,0.298157,-0.001343,0.083618,0.034058
32.58,-0.00592,-0.179993,0.311279,0.005188,0.057434,0.014954
32.6,-0.031738,-0.18335,0.329163,0.013733,0.026611,-0.003174
32.62,-0.043701,-0.188477,0.347107,0.024536,-0.002319,-0.022766
32.64,-0.042847,-0.195862,0.368103,0.028748,-0.026001,-0.043457
32.66,-0.006409,-0.207092,0.381531,0.026489,-0.048767,-0.060669
32.68,0.044556,-0.212585,0.385315,0.014648,-0.071899,-0.070129
32.7,0.092224,-0.207092,0.393372,-0.001587,-0.093323,-0.077148
32.72,0.158936,-0.204407,0.395386,-0.010742,-0.110046,-0.086243
32.74,0.254761,-0.203369,0.377869,-0.018555,-0.116577,-0.096985
32.76,0.38031,-0.199341,0.338013,-0.034912,-0.112244,-0.106567
32.78,0.5224,-0.206665,0.294128,-0.050537,-0.098022,-0.115112
32.8,0.680237,-0.213257,0.234131,-0.058777,-0.069092,-0.118286
32.82,0.808838,-0.237671,0.186279,-0.052185,-0.034729,-0.110596
32.84,0.879761,-0.256592,0.151123,-0.031616,-0.009949,-0.08844
32.86,0.88916,-0.261597,0.139404,-0.014465,-0.004822,-0.057739
32.88,0.858582,-0.261536,0.144409,-0.002136,-0.00885,-0.025452
32.9,0.79657,-0.259399,0.161621,0.008301,-0.01062,0.007629
32.92,0.702332,-0.242188,0.186218,0.016602,-0.004395,0.039246
32.94,0.585754,-0.226685,0.209656,0.023621,0.004395,0.06189
32.96,0.473511,-0.216736,0.239136,0.020996,0.010681,0.074158
32.98,0.363403,-0.207703,0.269714,0.009155,0.0224,0.080017
33.0,0.275452,-0.200195,0.287842,-0.006958,0.043884,0.081177
33.02,0.208069,-0.185974,0.2948,-0.020996,0.062866,0.076294
33.04,0.148743,-0.181519,0.298645,-0.024231,0.073303,0.064575
33.06,0.105835,-0.179688,0.300598,-0.02063,0.075012,0.049072
33.08,0.070557,-0.182312,0.306152,-0.013367,0.066284,0.029297
33.1,0.047729,-0.185242,0.309753,-0.00531,0.052307,0.007629
33.12,0.041443,-0.188171,0.317139,0.004761,0.038208,-0.012329
33.14,0.058411,-0.19281,0.317383,0.015381,0.026062,-0.032349
33.16,0.090271,-0.199768,0.31543,0.019714,0.008728,-0.048401
33.18,0.126526,-0.201172,0.318176,0.021301,-0.023865,-0.059814
33.2,0.16687,-0.203857,0.330017,0.022034,-0.064026,-0.071106
33.22,0.212891,-0.202209,0.34198,0.019165,-0.095032,-0.081421
33.24,0.282471,-0.193298,0.345215,0.010986,-0.105652,-0.090027
33.26,0.371399,-0.183105,0.331116,-0.004639,-0.100708,-0.101685
33.28,0.467102,-0.208435,0.310791,-0.01178,-0.08197,-0.112671
33.3,0.564941,-0.220642,0.280823,-0.010254,-0.049438,-0.10968
33.32,0.666138,-0.21875,0.246338,-0.012939,-0.011719,-0.096985
33.34,0.751953,-0.213196,0.207214,-0.018616,0.020447,-0.080322
33.36,0.802673,-0.216919,0.180969,-0.01886,0.040771,-0.059814
33.38,0.797363,-0.223511,0.170593,-0.012085,0.046387,-0.03186
33.4,0.733337,-0.22406,0.177979,-0.007141,0.036743,0.001526
33.42,0.631592,-0.214355,0.202515,-0.005676,0.017212,0.033325
33.44,0.522095,-0.200195,0.240784,-0.007141,-0.001038,0.054871
33.46,0.429199,-0.192322,0.274902,-0.008118,-0.003113,0.066345
33.48,0.342651,-0.188904,0.297302,-0.011047,0.010559,0.070129
33.5,0.259644,-0.188599,0.313782,-0.022034,0.032654,0.067932
33.52,0.194702,-0.180237,0.328125,-0.037415,0.05542,0.061462
33.54,0.14624,-0.179077,0.335205,-0.03772,0.072205,0.050171
33.56,0.117126,-0.187744,0.318054,-0.025146,0.078003,0.034302
33.58,0.085876,-0.191589,0.305115,-0.021606,0.0672,0.016602
33.6,0.0578,-0.191772,0.312683,-0.018555,0.044312,-0.00238
33.62,0.046875,-0.192932,0.328186,-0.006348,0.02356,-0.023193
33.64,0.047485,-0.19812,0.343262,0.005798,0.016724,-0.0448
33.66,0.070129,-0.197571,0.344238,0.013245,0.017395,-0.062073
33.68,0.129883,-0.197876,0.330322,0.019958,0.014832,-0.073303
33.7,0.205078,-0.193542,0.318481,0.020142,-0.000366,-0.082092
33.72,0.283447,-0.193665,0.309631,0.018921,-0.027954,-0.086609
33.74,0.355286,-0.195007,0.313232,0.018066,-0.060669,-0.086365
33.76,0.436401,-0.191223,0.309143,0.013245,-0.087097,-0.084412
33.78,0.531433,-0.191589,0.298645,0.007141,-0.092712,-0.080444
33.8,0.633484,-0.195251,0.275269,0.00531,-0.072937,-0.071716
33.82,0.743896,-0.202576,0.237366,0.004456,-0.03717,-0.056824
33.84,0.822388,-0.203857,0.195496,0.003723,0.002258,-0.03418
33.86,0.844116,-0.203064,0.162903,0.001587,0.035828,-0.005798
33.88,0.801697,-0.203674,0.144348,-0.001343,0.049561,0.026245
33.9,0.724426,-0.200562,0.163879,-0.005188,0.039795,0.059265
33.92,0.639832,-0.189514,0.19751,-0.003662,0.022278,0.087585
33.94,0.528931,-0.182251,0.234985,0.003601,0.010376,0.107788
33.96,0.415527,-0.178345,0.272766,0.015381,0.001404,0.12085
33.98,0.300781,-0.17804,0.312195,0.020081,-0.002991,0.12262
34.0,0.196716,-0.179199,0.352112,0.013,0.00177,0.115479
34.02,0.121033,-0.180298,0.3703,0.001404,0.014343,0.101562
34.04,0.075623,-0.179749,0.375916,-0.008667,0.028381,0.081482
34.06,0.044861,-0.183655,0.370728,-0.015808,0.041321,0.057922
34.08,0.019287,-0.188599,0.36322,-0.017822,0.048401,0.033325
34.1,0.007629,-0.191956,0.352783,-0.014587,0.049927,0.008484
34.12,0.012512,-0.195862,0.341309,-0.008728,0.044495,-0.016418
34.14,0.024536,-0.198425,0.336365,-0.000854,0.028564,-0.041138
34.16,0.06488,-0.198914,0.326233,0.005493,0.006775,-0.062561
34.18,0.129211,-0.197021,0.325745,0.009827,-0.015442,-0.078125
34.2,0.193115,-0.197632,0.325806,0.015076,-0.03717,-0.091492
34.22,0.273987,-0.201111,0.317871,0.014954,-0.06012,-0.101807
34.24,0.376465,-0.19519,0.298828,0.009583,-0.08136,-0.106995
34.26,0.491089,-0.19104,0.271912,0.008728,-0.092102,-0.107239
34.28,0.605225,-0.198364,0.241272,0.012878,-0.078613,-0.099976
34.3,0.711914,-0.207153,0.21283,0.015259,-0.045532,-0.085876
34.32,0.790283,-0.209167,0.188538,0.015015,-0.01001,-0.06604
34.34,0.831848,-0.210938,0.167542,0.015076,0.017273,-0.040527
34.36,0.825562,-0.211731,0.163452,0.014099,0.028564,-0.010559
34.38,0.762756,-0.209412,0.168152,0.02063,0.026611,0.019165
34.4,0.674072,-0.201843,0.189819,0.023071,0.018066,0.045166
34.42,0.577698,-0.187927,0.219482,0.024414,0.01178,0.065552
34.44,0.462097,-0.180542,0.255127,0.026184,0.013245,0.07782
34.46,0.352539,-0.173645,0.296143,0.025269,0.021057,0.082886
34.48,0.250854,-0.172363,0.331543,0.023926,0.035034,0.081299
34.5,0.163086,-0.173218,0.355957,0.014038,0.051147,0.072327
34.52,0.101318,-0.164734,0.370483,0.003174,0.065186,0.058533
34.54,0.067993,-0.160095,0.36853,0.004822,0.075195,0.040039
34.56,0.034363,-0.142639,0.362183,0.01593,0.080322,0.012451
34.58,-0.00061,-0.135254,0.36676,0.041016,0.083923,-0.028748
34.6,-0.009827,-0.139526,0.371826,0.071716,0.080627,-0.073059
34.62,0.009888,-0.138916,0.374268,0.095886,0.067627,-0.109436
34.64,0.058228,-0.135925,0.388367,0.11615,0.052002,-0.138184
34.66,0.10907,-0.13501,0.379944,0.134338,0.034119,-0.16394
34.68,0.155579,-0.138916,0.384399,0.148865,0.0047,-0.184937
34.7,0.213196,-0.131897,0.392456,0.160522,-0.03241,-0.196472
34.72,0.275269,-0.117126,0.389282,0.165466,-0.0672,-0.202332
34.74,0.342712,-0.103882,0.373657,0.153625,-0.091187,-0.208801
34.76,0.413025,-0.096008,0.36084,0.128479,-0.103882,-0.21637
34.78,0.494019,-0.087952,0.358215,0.110352,-0.099976,-0.219238
34.8,0.58374,-0.077148,0.340271,0.096313,-0.075745,-0.217346
34.82,0.673523,-0.059265,0.299988,0.080261,-0.032593,-0.207336
34.84,0.741577,-0.047302,0.27417,0.064392,0.015564,-0.188232
34.86,0.803345,-0.041382,0.245483,0.067261,0.054565,-0.16333
34.88,0.814636,-0.043091,0.226501,0.074341,0.080383,-0.132996
34.9,0.755615,-0.049194,0.223022,0.074829,0.089539,-0.097656
34.92,0.684021,-0.058044,0.232666,0.077148,0.082397,-0.055908
34.94,0.619995,-0.055908,0.254456,0.087463,0.069275,-0.011719
34.96,0.543213,-0.046875,0.279358,0.098145,0.063538,0.022522
34.98,0.467346,-0.056519,0.303711,0.099548,0.066101,0.044128
35.0,0.381775,-0.059753,0.33075,0.085083,0.076599,0.058533
35.02,0.289856,-0.064331,0.36322,0.065552,0.096985,0.065308
35.04,0.213928,-0.070129,0.367737,0.046753,0.12262,0.064331
35.06,0.172607,-0.08197,0.370667,0.016479,0.144348,0.06012
35.08,0.150269,-0.085938,0.369873,-0.007263,0.156433,0.059814
35.1,0.124023,-0.088989,0.36554,-0.015625,0.154602,0.062012
35.12,0.094421,-0.085388,0.362732,-0.013184,0.138611,0.065735
35.14,0.072449,-0.079712,0.357117,-0.010681,0.111023,0.064636
35.16,0.052063,-0.069092,0.352539,-0.009399,0.07489,0.057251
35.18,0.050171,-0.069275,0.359009,-0.006287,0.034058,0.045471
35.2,0.071655,-0.072083,0.379578,0.009094,-0.004456,0.03479
35.22,0.097717,-0.036499,0.406677,0.034302,-0.036743,0.026306
35.24,0.139587,-0.008545,0.434814,0.048767,-0.065063,0.004456
35.26,0.202332,-0.005737,0.42981,0.054688,-0.08783,-0.026428
35.28,0.279602,-0.019409,0.41748,0.049988,-0.103516,-0.054688
35.3,0.36322,-0.020752,0.406677,0.044495,-0.108032,-0.06781
35.32,0.452148,-0.012024,0.380554,0.046326,-0.105164,-0.070435
35.34,0.542908,-0.00946,0.353699,0.04248,-0.094116,-0.072205
35.36,0.625854,-0.01239,0.329712,0.030273,-0.074768,-0.070679
35.38,0.684265,-0.011047,0.315186,0.010071,-0.052795,-0.063293
35.4,0.713318,-0.015015,0.308228,-0.009216,-0.031799,-0.050049
35.42,0.715637,-0.020813,0.312378,-0.019226,-0.012207,-0.030273
35.44,0.69281,-0.032898,0.320007,-0.008362,0.006409,-0.001343
35.46,0.631104,-0.026855,0.309387,0.011353,0.013489,0.03064
35.48,0.562012,-0.027771,0.318237,0.020386,0.004211,0.055542
35.5,0.480469,-0.029663,0.34021,0.025635,-0.006592,0.073486
35.52,0.396118,-0.027466,0.355164,0.02887,-0.00769,0.084595
35.54,0.311584,-0.027832,0.373535,0.023132,-0.000244,0.085754
35.56,0.234802,-0.027893,0.387024,0.012878,0.010559,0.079834
35.58,0.177612,-0.029419,0.396423,0.005615,0.021362,0.070984
35.6,0.147583,-0.034241,0.391235,0.001343,0.029053,0.059448
35.62,0.128052,-0.037231,0.386963,-0.006836,0.030151,0.045959
35.64,0.11145,-0.041565,0.388428,-0.009705,0.024414,0.033203
35.66,0.092834,-0.044006,0.393127,-0.005066,0.011719,0.020813
35.68,0.08606,-0.048828,0.40094,0.001648,-0.0047,0.007263
35.7,0.089355,-0.049438,0.412903,0.001892,-0.021851,-0.007019
35.72,0.110168,-0.042542,0.427917,0.000916,-0.039062,-0.019592
35.74,0.148499,-0.03717,0.429138,0.008118,-0.052551,-0.029907
35.76,0.201843,-0.040039,0.41571,0.014465,-0.063171,-0.039307
35.78,0.259766,-0.039734,0.395691,0.00885,-0.073364,-0.04718
35.8,0.321106,-0.031616,0.375793,-0.003296,-0.082764,-0.053833
35.82,0.400574,-0.024353,0.351746,-0.014832,-0.088867,-0.060669
35.84,0.490845,-0.017639,0.323303,-0.029053,-0.088928,-0.067932
35.86,0.571228,-0.026184,0.299805,-0.046631,-0.082581,-0.072449
35.88,0.630554,-0.029663,0.288574,-0.059204,-0.070984,-0.069824
35.9,0.664062,-0.038696,0.289246,-0.05603,-0.053406,-0.058289
35.92,0.662354,-0.054504,0.294312,-0.033081,-0.029724,-0.037048
35.94,0.629578,-0.060791,0.292419,-0.001892,-0.005859,-0.00708
35.96,0.560486,-0.048584,0.283264,0.012573,0.007019,0.020325
35.98,0.494446,-0.05127,0.291443,0.010193,0.003723,0.036072
36.0,0.436462,-0.045166,0.309143,0.007935,-0.004089,0.045959
36.02,0.385864,-0.043274,0.329285,0.003723,-0.005005,0.050537
36.04,0.335449,-0.037537,0.34436,-0.003235,0.002075,0.049194
36.06,0.28894,-0.032471,0.356934,-0.006042,0.012085,0.041992
36.08,0.260864,-0.035278,0.356628,-0.00531,0.021423,0.030151
36.1,0.24762,-0.03894,0.353577,-0.009521,0.025146,0.017883
36.12,0.242798,-0.03717,0.352905,-0.01532,0.021362,0.00824
36.14,0.243164,-0.03363,0.353638,-0.019409,0.012756,-0.000916
36.16,0.246033,-0.026672,0.35907,-0.023926,0.000305,-0.011292
36.18,0.253845,-0.014832,0.376038,-0.023926,-0.014954,-0.022888
36.2,0.264099,-0.03418,0.39917,-0.00769,-0.027161,-0.035583
36.22,0.267639,-0.05426,0.399109,0.019897,-0.033997,-0.042175
36.24,0.270508,-0.051208,0.392578,0.033813,-0.039795,-0.040222
36.26,0.285645,-0.038818,0.390015,0.030212,-0.046204,-0.038879
36.28,0.30542,-0.033447,0.385742,0.025208,-0.053223,-0.041687
36.3,0.324524,-0.034851,0.379822,0.018799,-0.060059,-0.04541
36.32,0.34259,-0.037842,0.374817,0.007141,-0.065125,-0.045837
36.34,0.363037,-0.040771,0.370544,-0.001709,-0.067078,-0.042053
36.36,0.387512,-0.039978,0.355225,-0.000488,-0.066223,-0.034363
36.38,0.408569,-0.030151,0.334717,0.002136,-0.064575,-0.026611
36.4,0.419128,-0.028748,0.31842,0.004272,-0.064819,-0.021301
36.42,0.423462,-0.033508,0.30542,0.004578,-0.067871,-0.017029
36.44,0.424927,-0.032532,0.298401,-0.000244,-0.072693,-0.012146
36.46,0.425537,-0.021179,0.299072,-0.002808,-0.077881,-0.00824
36.48,0.426086,-0.021912,0.301147,0.012451,-0.08197,-0.006348
36.5,0.423279,-0.020996,0.291687,0.031189,-0.083191,-0.007141
36.52,0.421143,-0.016113,0.283264,0.038696,-0.084656,-0.011841
36.54,0.421631,-0.012329,0.277344,0.040771,-0.088745,-0.01886
36.56,0.408813,-0.011414,0.279968,0.045898,-0.096313,-0.027466
36.58,0.396057,-0.010071,0.285278,0.053223,-0.102722,-0.036011
36.6,0.394043,-0.005737,0.283813,0.054932,-0.108154,-0.046753
36.62,0.392761,0.004761,0.279114,0.051941,-0.113159,-0.057434
36.64,0.390137,0.013123,0.289612,0.054138,-0.11792,-0.065979
36.66,0.386963,0.004089,0.304626,0.070129,-0.119812,-0.071899
36.68,0.387207,0.001282,0.309692,0.082397,-0.117798,-0.074585
36.7,0.387329,0.005676,0.310486,0.080017,-0.115417,-0.073975
36.72,0.389832,0.013611,0.308716,0.071167,-0.115295,-0.072327
36.74,0.386536,0.024536,0.30481,0.065613,-0.11731,-0.072998
36.76,0.387817,0.029663,0.299072,0.059814,-0.119507,-0.075989
36.78,0.399963,0.031555,0.29303,0.044373,-0.123657,-0.078613
36.8,0.402283,0.035828,0.29303,0.029114,-0.128479,-0.080444
36.82,0.406738,0.035767,0.294983,0.026184,-0.1297,-0.084351
36.84,0.414917,0.039368,0.286743,0.024292,-0.130188,-0.088989
36.86,0.434265,0.039185,0.274597,0.011414,-0.132385,-0.09137
36.88,0.454956,0.043945,0.262817,-0.019409,-0.135559,-0.091125
36.9,0.473572,0.053528,0.245361,-0.063538,-0.137695,-0.088501
36.92,0.493713,0.055603,0.228516,-0.107422,-0.13678,-0.081848
36.94,0.501953,0.057007,0.216553,-0.141418,-0.131287,-0.074585
36.96,0.499146,0.061218,0.205566,-0.157349,-0.12323,-0.067993
36.98,0.507996,0.064392,0.193542,-0.158325,-0.111389,-0.059265
37.0,0.514648,0.060608,0.198181,-0.134888,-0.097351,-0.047974
37.02,0.505676,0.059204,0.184265,-0.081726,-0.079346,-0.036438
37.04,0.498718,0.058899,0.154602,-0.033875,-0.062134,-0.027161
37.06,0.498596,0.047546,0.146729,-0.005981,-0.051025,-0.021362
37.08,0.490723,0.047974,0.142212,0.014465,-0.043518,-0.017883
37.1,0.481262,0.042847,0.143311,0.029602,-0.035889,-0.016296
37.12,0.473511,0.030823,0.157593,0.038452,-0.029419,-0.012756
37.14,0.473694,0.029663,0.16449,0.042847,-0.020691,-0.005981
37.16,0.478577,0.033569,0.163513,0.041321,-0.01062,-0.000366
37.18,0.475037,0.037903,0.164795,0.032349,-0.00592,0.001587
37.2,0.471741,0.040405,0.172302,0.02063,-0.008972,0.002563
37.22,0.462585,0.044434,0.184509,0.015869,-0.011292,0.003296
37.24,0.463196,0.044312,0.184631,0.019531,-0.008667,0.003784
37.26,0.464233,0.047119,0.172913,0.017334,-0.003845,0.002075
37.28,0.462708,0.048706,0.170654,0.010254,-0.00177,-0.000488
37.3,0.467102,0.048523,0.169678,0.010254,0.000427,-0.000488
37.32,0.46814,0.048645,0.173096,0.014526,0.003357,0.001404
37.34,0.466064,0.04895,0.173889,0.017883,0.005493,0.002686
37.36,0.464417,0.048035,0.182434,0.01709,0.002502,0.00293
37.38,0.460327,0.046692,0.184021,0.013,-0.004578,0.003113
37.4,0.458801,0.046387,0.186829,0.002014,-0.012024,0.002625
37.42,0.456909,0.048828,0.194397,-0.010437,-0.016052,0.002258
37.44,0.455627,0.055603,0.205322,-0.018982,-0.015076,0.001892
37.46,0.45343,0.056702,0.217896,-0.015808,-0.009277,0.003479
37.48,0.463684,0.058044,0.212646,-0.00354,0.000793,0.006104
37.5,0.469177,0.060669,0.195618,0.003418,0.007751,0.00647
37.52,0.466003,0.057739,0.186829,0.001404,0.004578,0.005127
37.54,0.466309,0.05249,0.181091,0.0,-0.004761,0.005676
37.56,0.463318,0.053833,0.181396,-0.002258,-0.013062,0.007202
37.58,0.454529,0.058716,0.199646,0.002258,-0.0177,0.009338
37.6,0.457092,0.056458,0.204834,0.023438,-0.01532,0.010925
37.62,0.459534,0.050049,0.200867,0.03656,-0.011353,0.008972
37.64,0.450989,0.043762,0.198242,0.033203,-0.009888,0.007324
37.66,0.455078,0.050293,0.198242,0.021729,-0.009033,0.007812
37.68,0.4599,0.05542,0.193909,0.009583,-0.008484,0.007446
37.7,0.462402,0.054077,0.18988,-0.003662,-0.009766,0.006042
37.72,0.46051,0.051941,0.190247,-0.017151,-0.011475,0.005432
37.74,0.460876,0.050354,0.194519,-0.021912,-0.01062,0.006165
37.76,0.460938,0.050293,0.187683,-0.017212,-0.006897,0.006653
37.78,0.46283,0.050232,0.180298,-0.014832,-0.007263,0.005615
37.8,0.46344,0.050781,0.174683,-0.018066,-0.01416,0.003723
37.82,0.463928,0.051758,0.177063,-0.025085,-0.024475,0.001465
37.84,0.463562,0.051636,0.183167,-0.033508,-0.035156,-0.000977
37.86,0.467163,0.050903,0.192749,-0.041138,-0.042419,-0.002808
37.88,0.46759,0.052673,0.200134,-0.045288,-0.04541,-0.003235
37.9,0.462646,0.052551,0.213074,-0.037048,-0.042847,-0.001282
37.92,0.467773,0.050537,0.210876,-0.015503,-0.031494,0.002075
37.94,0.471558,0.047913,0.198853,0.000427,-0.016846,0.005249
37.96,0.473938,0.048096,0.181885,0.008423,-0.005798,0.007568
37.98,0.474792,0.047302,0.167236,0.007446,-0.002563,0.007874
38.0,0.471008,0.045593,0.162781,0.00116,-0.006226,0.006348
38.02,0.468628,0.043518,0.163757,-0.005066,-0.011597,0.004944
38.04,0.473206,0.044067,0.165344,-0.010559,-0.015747,0.004089
38.06,0.476807,0.044678,0.16687,-0.016602,-0.018494,0.002625
38.08,0.479492,0.044739,0.168945,-0.023254,-0.022705,0.001465
38.1,0.47699,0.047852,0.17511,-0.02832,-0.027649,0.001038
38.12,0.465942,0.04657,0.194092,-0.023621,-0.03009,0.001831
38.14,0.463745,0.040833,0.203857,-0.002014,-0.022644,0.003662
38.16,0.466064,0.035461,0.196472,0.019592,-0.006165,0.006348
38.18,0.466736,0.037842,0.176086,0.025757,0.007263,0.007324
38.2,0.465637,0.039673,0.157227,0.020081,0.009338,0.005188
38.22,0.464233,0.036682,0.155579,0.008911,0.001892,0.001343
38.24,0.465881,0.033997,0.165833,-0.002197,-0.005249,-0.000671
38.26,0.470459,0.035706,0.170471,-0.010193,-0.00824,-0.000244
38.28,0.470215,0.040344,0.170044,-0.01593,-0.010132,0.000244
38.3,0.464233,0.039673,0.174683,-0.016846,-0.012573,6.1e-05
38.32,0.460144,0.037476,0.185547,-0.011292,-0.013855,0.00061
38.34,0.463135,0.036011,0.186768,-0.000427,-0.011597,0.00177
38.36,0.464355,0.036438,0.179443,0.003906,-0.007385,0.002197
38.38,0.465942,0.038879,0.17511,0.000854,-0.004761,0.001282
38.4,0.463257,0.040955,0.179626,0.001221,-0.003845,0.000366
38.42,0.463074,0.039062,0.181946,0.00769,-0.002869,0.000183
38.44,0.463501,0.038757,0.180786,0.01178,-0.001343,0.000549
38.46,0.466736,0.041382,0.175964,0.01178,0.000366,-0.000183
38.48,0.472717,0.041504,0.170227,0.007629,-0.000244,-0.002197
38.5,0.472595,0.037048,0.166382,0.003357,-0.003296,-0.003479
38.52,0.467102,0.036133,0.164856,-0.002991,-0.00824,-0.003052
38.54,0.462402,0.038452,0.1745,-0.007874,-0.012329,-0.002075
38.56,0.460999,0.038879,0.180969,-0.003967,-0.011536,-0.00116
38.58,0.459412,0.040161,0.178223,0.002686,-0.007324,-0.001038
38.6,0.459595,0.042053,0.176819,0.007935,-0.004761,-0.00238
38.62,0.463135,0.043152,0.1745,0.010437,-0.005066,-0.005005
38.64,0.46814,0.045349,0.176636,0.012695,-0.00592,-0.006775
38.66,0.470398,0.047852,0.185425,0.016113,-0.005554,-0.007385
38.68,0.472534,0.047363,0.185974,0.021973,-0.002686,-0.007751
38.7,0.473328,0.044189,0.182983,0.024597,0.000549,-0.00824
38.72,0.471069,0.040527,0.174011,0.022949,0.000793,-0.008118
38.74,0.475037,0.040894,0.165771,0.014893,-0.002014,-0.007629
38.76,0.478638,0.036865,0.165894,0.004395,-0.004578,-0.006226
38.78,0.472046,0.03772,0.166443,-0.00177,-0.006409,-0.00293
38.8,0.463989,0.044617,0.169006,-0.008179,-0.010498,-0.001099
38.82,0.472961,0.046265,0.173584,-0.011414,-0.015198,-0.000488
38.84,0.476013,0.04895,0.177856,-0.005493,-0.015076,0.000854
38.86,0.468018,0.051331,0.185608,0.004211,-0.013306,0.001038
38.88,0.45874,0.045532,0.186279,0.013672,-0.010193,-0.000916
38.9,0.45929,0.042114,0.185608,0.017883,-0.006958,-0.001587
38.92,0.464966,0.045105,0.182983,0.020081,-0.00238,-0.000427
38.94,0.468994,0.04895,0.182312,0.02124,0.002625,0.000366
38.96,0.473083,0.049927,0.175537,0.019836,0.005188,-0.000183
38.98,0.475464,0.047363,0.168701,0.013245,0.002869,-0.001648
39.0,0.478149,0.045898,0.166138,0.002686,-0.003113,-0.003113
39.02,0.475464,0.045105,0.166687,-0.008179,-0.009094,-0.003479
39.04,0.469604,0.04657,0.171692,-0.016846,-0.014771,-0.003845
39.06,0.460266,0.049866,0.179626,-0.019409,-0.018066,-0.004272
39.08,0.463379,0.048706,0.183777,-0.012695,-0.016235,-0.004272
39.1,0.466431,0.047913,0.179199,-0.005493,-0.009888,-0.005249
39.12,0.465332,0.045532,0.173157,-0.00415,-0.005432,-0.007019
39.14,0.465027,0.047241,0.174011,-0.003906,-0.005859,-0.007935
39.16,0.467957,0.047302,0.178162,-6.1e-05,-0.007507,-0.007812
39.18,0.472229,0.048279,0.175598,0.001709,-0.007141,-0.007751
39.2,0.472839,0.049744,0.170532,6.1e-05,-0.006104,-0.008484
